{"creationDateTime":"2024-02-14T11:46:27","datasetJSONVersion":"1.0.0","fileOID":"CDISCPILOT01.f15_1_2_map","clinicalData":{"studyOID":"CDISCPILOT01","metaDataVersionOID":"MDV.CDISCPILOT01","itemGroupData":{"IG.F15_1_2_MAP":{"records":492,"name":"F15_1_2_MAP","label":"f15_1_2_map","items":[{"OID":"ITEMGROUPDATASEQ","name":"ITEMGROUPDATASEQ","label":"Record Identifier","type":"integer"},{"OID":"IT.F15_1_2_MAP.USUBJID","name":"USUBJID","label":"Unique Subject Identifier","type":"string","length":11,"displayFormat":"."},{"OID":"IT.F15_1_2_MAP.SAFFL","name":"SAFFL","label":"Safety Population Flag","type":"string","length":1,"displayFormat":"."},{"OID":"IT.F15_1_2_MAP.TRTA","name":"TRTA","label":"Actual Treatment","type":"string","length":20,"displayFormat":"."},{"OID":"IT.F15_1_2_MAP.TRTAN","name":"TRTAN","label":"Actual Treatment (N)","type":"float","length":8,"displayFormat":"."},{"OID":"IT.F15_1_2_MAP.PARAM","name":"param","label":"Parameter","type":"string","length":100,"displayFormat":"."},{"OID":"IT.F15_1_2_MAP.PARAMCD","name":"paramcd","label":"Parameter Code","type":"string","length":8,"displayFormat":"."},{"OID":"IT.F15_1_2_MAP.PARAMN","name":"PARAMN","label":"Parameter (N)","type":"float","length":8,"displayFormat":"."},{"OID":"IT.F15_1_2_MAP.VISIT","name":"VISIT","label":"Visit Name","type":"string","length":16,"displayFormat":"."},{"OID":"IT.F15_1_2_MAP.VISITNUM","name":"VISITNUM","label":"Visit Number","type":"float","length":8,"displayFormat":"."},{"OID":"IT.F15_1_2_MAP.AVISIT","name":"AVISIT","label":"Analysis Visit","type":"string","length":16,"displayFormat":"."},{"OID":"IT.F15_1_2_MAP.AVISITN","name":"AVISITN","label":"Analysis Visit (N)","type":"float","length":8,"displayFormat":"."},{"OID":"IT.F15_1_2_MAP.SRCDOM","name":"SRCDOM","label":"Srcdom","type":"string","length":5,"displayFormat":"."},{"OID":"IT.F15_1_2_MAP.SRCVAR","name":"SRCVAR","label":"Srcvar","type":"string","length":6,"displayFormat":"."},{"OID":"IT.F15_1_2_MAP.SRCVLABL","name":"SRCVLABL","label":"Srcvlabl","type":"string","length":12,"displayFormat":"."},{"OID":"IT.F15_1_2_MAP.R2A1HI","name":"R2A1HI","label":"Ratio to Analysis Range 1 Upper Limit","type":"float","length":8,"displayFormat":"."}],"itemData":[[1,"01-705-1199","Y","Xanomeline Low Dose",54,"Bilirubin (umol/L)","BILI",21,"WEEK 2",4,"Week 2",2,"ADLBC","R2ALHI","Ratio values",0.244285714286],[2,"01-716-1229","Y","Xanomeline High Dose",81,"Bilirubin (umol/L)","BILI",21,"WEEK 2",4,"Week 2",2,"ADLBC","R2ALHI","Ratio values",0.244285714286],[3,"01-709-1329","Y","Xanomeline High Dose",81,"Bilirubin (umol/L)","BILI",21,"WEEK 2",4,"Week 2",2,"ADLBC","R2ALHI","Ratio values",0.244285714286],[4,"01-705-1282","Y","Placebo",0,"Bilirubin (umol/L)","BILI",21,"WEEK 20",11,"Week 20",20,"ADLBC","R2ALHI","Ratio values",0.325714285714],[5,"01-709-1081","Y","Xanomeline Low Dose",54,"Bilirubin (umol/L)","BILI",21,"WEEK 2",4,"Week 2",2,"ADLBC","R2ALHI","Ratio values",0.325714285714],[6,"01-708-1158","Y","Placebo",0,"Bilirubin (umol/L)","BILI",21,"WEEK 2",4,"Week 2",2,"ADLBC","R2ALHI","Ratio values",0.325714285714],[7,"01-705-1393","Y","Xanomeline Low Dose",54,"Bilirubin (umol/L)","BILI",21,"WEEK 16",10,"Week 16",16,"ADLBC","R2ALHI","Ratio values",0.325714285714],[8,"01-705-1377","Y","Xanomeline High Dose",81,"Bilirubin (umol/L)","BILI",21,"WEEK 2",4,"Week 2",2,"ADLBC","R2ALHI","Ratio values",0.325714285714],[9,"01-715-1405","Y","Xanomeline Low Dose",54,"Bilirubin (umol/L)","BILI",21,"WEEK 2",4,"Week 2",2,"ADLBC","R2ALHI","Ratio values",0.325714285714],[10,"01-716-1103","Y","Xanomeline Low Dose",54,"Bilirubin (umol/L)","BILI",21,"WEEK 4",5,"Week 4",4,"ADLBC","R2ALHI","Ratio values",0.325714285714],[11,"01-705-1031","Y","Xanomeline Low Dose",54,"Bilirubin (umol/L)","BILI",21,"WEEK 4",5,"Week 4",4,"ADLBC","R2ALHI","Ratio values",0.325714285714],[12,"01-717-1004","Y","Xanomeline Low Dose",54,"Bilirubin (umol/L)","BILI",21,"WEEK 2",4,"Week 2",2,"ADLBC","R2ALHI","Ratio values",0.325714285714],[13,"01-709-1326","Y","Xanomeline Low Dose",54,"Bilirubin (umol/L)","BILI",21,"WEEK 2",4,"Week 2",2,"ADLBC","R2ALHI","Ratio values",0.325714285714],[14,"01-718-1250","Y","Xanomeline Low Dose",54,"Bilirubin (umol/L)","BILI",21,"WEEK 4",5,"Week 4",4,"ADLBC","R2ALHI","Ratio values",0.325714285714],[15,"01-710-1142","Y","Xanomeline High Dose",81,"Bilirubin (umol/L)","BILI",21,"WEEK 2",4,"Week 2",2,"ADLBC","R2ALHI","Ratio values",0.325714285714],[16,"01-716-1026","Y","Placebo",0,"Bilirubin (umol/L)","BILI",21,"WEEK 2",4,"Week 2",2,"ADLBC","R2ALHI","Ratio values",0.325714285714],[17,"01-701-1387","Y","Placebo",0,"Bilirubin (umol/L)","BILI",21,"WEEK 2",4,"Week 2",2,"ADLBC","R2ALHI","Ratio values",0.325714285714],[18,"01-713-1209","Y","Xanomeline High Dose",81,"Bilirubin (umol/L)","BILI",21,"WEEK 4",5,"Week 4",4,"ADLBC","R2ALHI","Ratio values",0.325714285714],[19,"01-716-1030","Y","Xanomeline High Dose",81,"Bilirubin (umol/L)","BILI",21,"WEEK 2",4,"Week 2",2,"ADLBC","R2ALHI","Ratio values",0.325714285714],[20,"01-714-1068","Y","Xanomeline Low Dose",54,"Bilirubin (umol/L)","BILI",21,"WEEK 2",4,"Week 2",2,"ADLBC","R2ALHI","Ratio values",0.325714285714],[21,"01-716-1308","Y","Placebo",0,"Bilirubin (umol/L)","BILI",21,"WEEK 2",4,"Week 2",2,"ADLBC","R2ALHI","Ratio values",0.325714285714],[22,"01-709-1424","Y","Xanomeline High Dose",81,"Bilirubin (umol/L)","BILI",21,"UNSCHEDULED 4.1",4.1,"",null,"ADLBC","R2ALHI","Ratio values",0.325714285714],[23,"01-718-1066","Y","Xanomeline Low Dose",54,"Bilirubin (umol/L)","BILI",21,"WEEK 2",4,"Week 2",2,"ADLBC","R2ALHI","Ratio values",0.325714285714],[24,"01-703-1096","Y","Placebo",0,"Bilirubin (umol/L)","BILI",21,"WEEK 4",5,"Week 4",4,"ADLBC","R2ALHI","Ratio values",0.325714285714],[25,"01-710-1300","Y","Xanomeline Low Dose",54,"Bilirubin (umol/L)","BILI",21,"WEEK 4",5,"Week 4",4,"ADLBC","R2ALHI","Ratio values",0.325714285714],[26,"01-708-1019","Y","Xanomeline Low Dose",54,"Bilirubin (umol/L)","BILI",21,"WEEK 2",4,"Week 2",2,"ADLBC","R2ALHI","Ratio values",0.325714285714],[27,"01-718-1371","Y","Xanomeline High Dose",81,"Bilirubin (umol/L)","BILI",21,"WEEK 2",4,"Week 2",2,"ADLBC","R2ALHI","Ratio values",0.325714285714],[28,"01-715-1155","Y","Placebo",0,"Bilirubin (umol/L)","BILI",21,"WEEK 4",5,"Week 4",4,"ADLBC","R2ALHI","Ratio values",0.325714285714],[29,"01-716-1151","Y","Xanomeline Low Dose",54,"Bilirubin (umol/L)","BILI",21,"WEEK 2",4,"Week 2",2,"ADLBC","R2ALHI","Ratio values",0.325714285714],[30,"01-708-1428","Y","Xanomeline Low Dose",54,"Bilirubin (umol/L)","BILI",21,"WEEK 2",4,"Week 2",2,"ADLBC","R2ALHI","Ratio values",0.407142857143],[31,"01-716-1298","Y","Xanomeline Low Dose",54,"Bilirubin (umol/L)","BILI",21,"WEEK 2",4,"Week 2",2,"ADLBC","R2ALHI","Ratio values",0.407142857143],[32,"01-703-1299","Y","Placebo",0,"Bilirubin (umol/L)","BILI",21,"WEEK 2",4,"Week 2",2,"ADLBC","R2ALHI","Ratio values",0.407142857143],[33,"01-718-1079","Y","Xanomeline Low Dose",54,"Bilirubin (umol/L)","BILI",21,"WEEK 2",4,"Week 2",2,"ADLBC","R2ALHI","Ratio values",0.407142857143],[34,"01-708-1353","Y","Xanomeline Low Dose",54,"Bilirubin (umol/L)","BILI",21,"WEEK 4",5,"Week 4",4,"ADLBC","R2ALHI","Ratio values",0.407142857143],[35,"01-715-1107","Y","Xanomeline Low Dose",54,"Bilirubin (umol/L)","BILI",21,"WEEK 2",4,"Week 2",2,"ADLBC","R2ALHI","Ratio values",0.407142857143],[36,"01-717-1201","Y","Placebo",0,"Bilirubin (umol/L)","BILI",21,"WEEK 2",4,"Week 2",2,"ADLBC","R2ALHI","Ratio values",0.407142857143],[37,"01-710-1385","Y","Xanomeline Low Dose",54,"Bilirubin (umol/L)","BILI",21,"WEEK 8",8,"Week 8",8,"ADLBC","R2ALHI","Ratio values",0.407142857143],[38,"01-711-1036","Y","Placebo",0,"Bilirubin (umol/L)","BILI",21,"WEEK 6",7,"Week 6",6,"ADLBC","R2ALHI","Ratio values",0.407142857143],[39,"01-710-1045","Y","Xanomeline Low Dose",54,"Bilirubin (umol/L)","BILI",21,"WEEK 6",7,"Week 6",6,"ADLBC","R2ALHI","Ratio values",0.407142857143],[40,"01-703-1119","Y","Xanomeline Low Dose",54,"Bilirubin (umol/L)","BILI",21,"WEEK 6",7,"Week 6",6,"ADLBC","R2ALHI","Ratio values",0.407142857143],[41,"01-706-1049","Y","Xanomeline High Dose",81,"Bilirubin (umol/L)","BILI",21,"WEEK 2",4,"Week 2",2,"ADLBC","R2ALHI","Ratio values",0.407142857143],[42,"01-701-1324","Y","Xanomeline Low Dose",54,"Bilirubin (umol/L)","BILI",21,"WEEK 4",5,"Week 4",4,"ADLBC","R2ALHI","Ratio values",0.407142857143],[43,"01-710-1249","Y","Xanomeline High Dose",81,"Bilirubin (umol/L)","BILI",21,"WEEK 20",11,"Week 20",20,"ADLBC","R2ALHI","Ratio values",0.407142857143],[44,"01-716-1157","Y","Xanomeline Low Dose",54,"Bilirubin (umol/L)","BILI",21,"WEEK 12",9,"Week 12",12,"ADLBC","R2ALHI","Ratio values",0.407142857143],[45,"01-701-1188","Y","Xanomeline Low Dose",54,"Bilirubin (umol/L)","BILI",21,"WEEK 2",4,"Week 2",2,"ADLBC","R2ALHI","Ratio values",0.407142857143],[46,"01-713-1179","Y","Placebo",0,"Bilirubin (umol/L)","BILI",21,"WEEK 2",4,"Week 2",2,"ADLBC","R2ALHI","Ratio values",0.407142857143],[47,"01-701-1341","Y","Xanomeline Low Dose",54,"Bilirubin (umol/L)","BILI",21,"WEEK 2",4,"Week 2",2,"ADLBC","R2ALHI","Ratio values",0.407142857143],[48,"01-713-1256","Y","Placebo",0,"Bilirubin (umol/L)","BILI",21,"WEEK 2",4,"Week 2",2,"ADLBC","R2ALHI","Ratio values",0.407142857143],[49,"01-709-1301","Y","Placebo",0,"Bilirubin (umol/L)","BILI",21,"WEEK 2",4,"Week 2",2,"ADLBC","R2ALHI","Ratio values",0.407142857143],[50,"01-716-1447","Y","Xanomeline High Dose",81,"Bilirubin (umol/L)","BILI",21,"WEEK 16",10,"Week 16",16,"ADLBC","R2ALHI","Ratio values",0.407142857143],[51,"01-708-1171","Y","Placebo",0,"Bilirubin (umol/L)","BILI",21,"WEEK 2",4,"Week 2",2,"ADLBC","R2ALHI","Ratio values",0.407142857143],[52,"01-711-1012","Y","Xanomeline High Dose",81,"Bilirubin (umol/L)","BILI",21,"WEEK 4",5,"Week 4",4,"ADLBC","R2ALHI","Ratio values",0.407142857143],[53,"01-703-1100","Y","Placebo",0,"Bilirubin (umol/L)","BILI",21,"WEEK 4",5,"Week 4",4,"ADLBC","R2ALHI","Ratio values",0.407142857143],[54,"01-707-1037","Y","Xanomeline Low Dose",54,"Bilirubin (umol/L)","BILI",21,"WEEK 2",4,"Week 2",2,"ADLBC","R2ALHI","Ratio values",0.407142857143],[55,"01-716-1189","Y","Xanomeline High Dose",81,"Bilirubin (umol/L)","BILI",21,"WEEK 2",4,"Week 2",2,"ADLBC","R2ALHI","Ratio values",0.407142857143],[56,"01-710-1002","Y","Xanomeline Low Dose",54,"Bilirubin (umol/L)","BILI",21,"WEEK 2",4,"Week 2",2,"ADLBC","R2ALHI","Ratio values",0.407142857143],[57,"01-701-1015","Y","Placebo",0,"Bilirubin (umol/L)","BILI",21,"WEEK 2",4,"Week 2",2,"ADLBC","R2ALHI","Ratio values",0.407142857143],[58,"01-701-1023","Y","Placebo",0,"Bilirubin (umol/L)","BILI",21,"WEEK 4",5,"Week 4",4,"ADLBC","R2ALHI","Ratio values",0.407142857143],[59,"01-708-1084","Y","Xanomeline Low Dose",54,"Bilirubin (umol/L)","BILI",21,"WEEK 6",7,"Week 6",6,"ADLBC","R2ALHI","Ratio values",0.407142857143],[60,"01-717-1344","Y","Placebo",0,"Bilirubin (umol/L)","BILI",21,"WEEK 4",5,"Week 4",4,"ADLBC","R2ALHI","Ratio values",0.407142857143],[61,"01-701-1153","Y","Placebo",0,"Bilirubin (umol/L)","BILI",21,"WEEK 16",10,"Week 16",16,"ADLBC","R2ALHI","Ratio values",0.407142857143],[62,"01-701-1111","Y","Xanomeline Low Dose",54,"Bilirubin (umol/L)","BILI",21,"WEEK 2",4,"Week 2",2,"ADLBC","R2ALHI","Ratio values",0.407142857143],[63,"01-701-1345","Y","Placebo",0,"Bilirubin (umol/L)","BILI",21,"WEEK 4",5,"Week 4",4,"ADLBC","R2ALHI","Ratio values",0.407142857143],[64,"01-701-1440","Y","Placebo",0,"Bilirubin (umol/L)","BILI",21,"WEEK 6",7,"Week 6",6,"ADLBC","R2ALHI","Ratio values",0.407142857143],[65,"01-710-1358","Y","Xanomeline Low Dose",54,"Bilirubin (umol/L)","BILI",21,"WEEK 20",11,"Week 20",20,"ADLBC","R2ALHI","Ratio values",0.407142857143],[66,"01-711-1433","Y","Xanomeline High Dose",81,"Bilirubin (umol/L)","BILI",21,"WEEK 2",4,"Week 2",2,"ADLBC","R2ALHI","Ratio values",0.407142857143],[67,"01-701-1047","Y","Placebo",0,"Bilirubin (umol/L)","BILI",21,"WEEK 2",4,"Week 2",2,"ADLBC","R2ALHI","Ratio values",0.407142857143],[68,"01-701-1363","Y","Placebo",0,"Bilirubin (umol/L)","BILI",21,"WEEK 8",8,"Week 8",8,"ADLBC","R2ALHI","Ratio values",0.407142857143],[69,"01-708-1286","Y","Placebo",0,"Bilirubin (umol/L)","BILI",21,"WEEK 16",10,"Week 16",16,"ADLBC","R2ALHI","Ratio values",0.407142857143],[70,"01-706-1384","Y","Xanomeline Low Dose",54,"Bilirubin (umol/L)","BILI",21,"WEEK 2",4,"Week 2",2,"ADLBC","R2ALHI","Ratio values",0.407142857143],[71,"01-701-1181","Y","Xanomeline High Dose",81,"Bilirubin (umol/L)","BILI",21,"WEEK 2",4,"Week 2",2,"ADLBC","R2ALHI","Ratio values",0.407142857143],[72,"01-706-1041","Y","Placebo",0,"Bilirubin (umol/L)","BILI",21,"WEEK 4",5,"Week 4",4,"ADLBC","R2ALHI","Ratio values",0.407142857143],[73,"01-709-1217","Y","Xanomeline Low Dose",54,"Bilirubin (umol/L)","BILI",21,"WEEK 2",4,"Week 2",2,"ADLBC","R2ALHI","Ratio values",0.407142857143],[74,"01-701-1203","Y","Placebo",0,"Bilirubin (umol/L)","BILI",21,"WEEK 26",13,"Week 26",26,"ADLBC","R2ALHI","Ratio values",0.407142857143],[75,"01-709-1007","Y","Xanomeline Low Dose",54,"Bilirubin (umol/L)","BILI",21,"WEEK 4",5,"Week 4",4,"ADLBC","R2ALHI","Ratio values",0.407142857143],[76,"01-708-1348","Y","Xanomeline Low Dose",54,"Bilirubin (umol/L)","BILI",21,"WEEK 20",11,"Week 20",20,"ADLBC","R2ALHI","Ratio values",0.407142857143],[77,"01-708-1347","Y","Xanomeline High Dose",81,"Bilirubin (umol/L)","BILI",21,"WEEK 6",7,"Week 6",6,"ADLBC","R2ALHI","Ratio values",0.407142857143],[78,"01-703-1379","Y","Xanomeline Low Dose",54,"Bilirubin (umol/L)","BILI",21,"WEEK 8",8,"Week 8",8,"ADLBC","R2ALHI","Ratio values",0.407142857143],[79,"01-701-1442","Y","Xanomeline Low Dose",54,"Bilirubin (umol/L)","BILI",21,"WEEK 2",4,"Week 2",2,"ADLBC","R2ALHI","Ratio values",0.407142857143],[80,"01-705-1431","Y","Xanomeline Low Dose",54,"Bilirubin (umol/L)","BILI",21,"WEEK 2",4,"Week 2",2,"ADLBC","R2ALHI","Ratio values",0.407142857143],[81,"01-701-1115","Y","Xanomeline Low Dose",54,"Bilirubin (umol/L)","BILI",21,"WEEK 8",8,"Week 8",8,"ADLBC","R2ALHI","Ratio values",0.407142857143],[82,"01-715-1397","Y","Placebo",0,"Bilirubin (umol/L)","BILI",21,"WEEK 6",7,"Week 6",6,"ADLBC","R2ALHI","Ratio values",0.407142857143],[83,"01-715-1321","Y","Xanomeline High Dose",81,"Bilirubin (umol/L)","BILI",21,"WEEK 6",7,"Week 6",6,"ADLBC","R2ALHI","Ratio values",0.407142857143],[84,"01-703-1335","Y","Xanomeline High Dose",81,"Bilirubin (umol/L)","BILI",21,"WEEK 2",4,"Week 2",2,"ADLBC","R2ALHI","Ratio values",0.407142857143],[85,"01-701-1034","Y","Xanomeline High Dose",81,"Bilirubin (umol/L)","BILI",21,"WEEK 8",8,"Week 8",8,"ADLBC","R2ALHI","Ratio values",0.407142857143],[86,"01-704-1025","Y","Xanomeline Low Dose",54,"Bilirubin (umol/L)","BILI",21,"WEEK 2",4,"Week 2",2,"ADLBC","R2ALHI","Ratio values",0.488571428571],[87,"01-709-1001","Y","Placebo",0,"Bilirubin (umol/L)","BILI",21,"WEEK 4",5,"Week 4",4,"ADLBC","R2ALHI","Ratio values",0.488571428571],[88,"01-708-1296","Y","Placebo",0,"Bilirubin (umol/L)","BILI",21,"WEEK 6",7,"Week 6",6,"ADLBC","R2ALHI","Ratio values",0.488571428571],[89,"01-709-1306","Y","Placebo",0,"Bilirubin (umol/L)","BILI",21,"WEEK 2",4,"Week 2",2,"ADLBC","R2ALHI","Ratio values",0.488571428571],[90,"01-710-1078","Y","Placebo",0,"Bilirubin (umol/L)","BILI",21,"WEEK 26",13,"Week 26",26,"ADLBC","R2ALHI","Ratio values",0.488571428571],[91,"01-713-1073","Y","Xanomeline Low Dose",54,"Bilirubin (umol/L)","BILI",21,"WEEK 16",10,"Week 16",16,"ADLBC","R2ALHI","Ratio values",0.488571428571],[92,"01-701-1302","Y","Xanomeline High Dose",81,"Bilirubin (umol/L)","BILI",21,"WEEK 6",7,"Week 6",6,"ADLBC","R2ALHI","Ratio values",0.488571428571],[93,"01-703-1076","Y","Xanomeline High Dose",81,"Bilirubin (umol/L)","BILI",21,"WEEK 4",5,"Week 4",4,"ADLBC","R2ALHI","Ratio values",0.488571428571],[94,"01-701-1275","Y","Xanomeline High Dose",81,"Bilirubin (umol/L)","BILI",21,"WEEK 2",4,"Week 2",2,"ADLBC","R2ALHI","Ratio values",0.488571428571],[95,"01-715-1319","Y","Xanomeline High Dose",81,"Bilirubin (umol/L)","BILI",21,"WEEK 4",5,"Week 4",4,"ADLBC","R2ALHI","Ratio values",0.488571428571],[96,"01-708-1178","Y","Xanomeline High Dose",81,"Bilirubin (umol/L)","BILI",21,"WEEK 6",7,"Week 6",6,"ADLBC","R2ALHI","Ratio values",0.488571428571],[97,"01-716-1160","Y","Placebo",0,"Bilirubin (umol/L)","BILI",21,"WEEK 16",10,"Week 16",16,"ADLBC","R2ALHI","Ratio values",0.488571428571],[98,"01-701-1294","Y","Xanomeline Low Dose",54,"Bilirubin (umol/L)","BILI",21,"WEEK 6",7,"Week 6",6,"ADLBC","R2ALHI","Ratio values",0.488571428571],[99,"01-716-1071","Y","Xanomeline High Dose",81,"Bilirubin (umol/L)","BILI",21,"WEEK 2",4,"Week 2",2,"ADLBC","R2ALHI","Ratio values",0.488571428571],[100,"01-718-1427","Y","Xanomeline High Dose",81,"Bilirubin (umol/L)","BILI",21,"WEEK 2",4,"Week 2",2,"ADLBC","R2ALHI","Ratio values",0.488571428571],[101,"01-713-1448","Y","Xanomeline Low Dose",54,"Bilirubin (umol/L)","BILI",21,"WEEK 8",8,"Week 8",8,"ADLBC","R2ALHI","Ratio values",0.488571428571],[102,"01-701-1392","Y","Placebo",0,"Bilirubin (umol/L)","BILI",21,"WEEK 2",4,"Week 2",2,"ADLBC","R2ALHI","Ratio values",0.488571428571],[103,"01-714-1375","Y","Placebo",0,"Bilirubin (umol/L)","BILI",21,"WEEK 24",12,"Week 24",24,"ADLBC","R2ALHI","Ratio values",0.488571428571],[104,"01-718-1139","Y","Placebo",0,"Bilirubin (umol/L)","BILI",21,"WEEK 16",10,"Week 16",16,"ADLBC","R2ALHI","Ratio values",0.488571428571],[105,"01-705-1280","Y","Xanomeline High Dose",81,"Bilirubin (umol/L)","BILI",21,"WEEK 16",10,"Week 16",16,"ADLBC","R2ALHI","Ratio values",0.488571428571],[106,"01-710-1137","Y","Xanomeline High Dose",81,"Bilirubin (umol/L)","BILI",21,"WEEK 2",4,"Week 2",2,"ADLBC","R2ALHI","Ratio values",0.488571428571],[107,"01-716-1167","Y","Xanomeline Low Dose",54,"Bilirubin (umol/L)","BILI",21,"WEEK 12",9,"Week 12",12,"ADLBC","R2ALHI","Ratio values",0.488571428571],[108,"01-710-1315","Y","Placebo",0,"Bilirubin (umol/L)","BILI",21,"WEEK 2",4,"Week 2",2,"ADLBC","R2ALHI","Ratio values",0.488571428571],[109,"01-710-1314","Y","Placebo",0,"Bilirubin (umol/L)","BILI",21,"WEEK 2",4,"Week 2",2,"ADLBC","R2ALHI","Ratio values",0.488571428571],[110,"01-701-1118","Y","Placebo",0,"Bilirubin (umol/L)","BILI",21,"WEEK 4",5,"Week 4",4,"ADLBC","R2ALHI","Ratio values",0.488571428571],[111,"01-710-1271","Y","Placebo",0,"Bilirubin (umol/L)","BILI",21,"WEEK 6",7,"Week 6",6,"ADLBC","R2ALHI","Ratio values",0.488571428571],[112,"01-704-1435","Y","Placebo",0,"Bilirubin (umol/L)","BILI",21,"WEEK 4",5,"Week 4",4,"ADLBC","R2ALHI","Ratio values",0.488571428571],[113,"01-710-1235","Y","Xanomeline Low Dose",54,"Bilirubin (umol/L)","BILI",21,"WEEK 8",8,"Week 8",8,"ADLBC","R2ALHI","Ratio values",0.488571428571],[114,"01-718-1170","Y","Xanomeline Low Dose",54,"Bilirubin (umol/L)","BILI",21,"WEEK 2",4,"Week 2",2,"ADLBC","R2ALHI","Ratio values",0.488571428571],[115,"01-701-1146","Y","Xanomeline High Dose",81,"Bilirubin (umol/L)","BILI",21,"WEEK 6",7,"Week 6",6,"ADLBC","R2ALHI","Ratio values",0.488571428571],[116,"01-704-1241","Y","Xanomeline High Dose",81,"Bilirubin (umol/L)","BILI",21,"WEEK 2",4,"Week 2",2,"ADLBC","R2ALHI","Ratio values",0.488571428571],[117,"01-707-1206","Y","Placebo",0,"Bilirubin (umol/L)","BILI",21,"WEEK 4",5,"Week 4",4,"ADLBC","R2ALHI","Ratio values",0.488571428571],[118,"01-710-1021","Y","Xanomeline High Dose",81,"Bilirubin (umol/L)","BILI",21,"WEEK 6",7,"Week 6",6,"ADLBC","R2ALHI","Ratio values",0.488571428571],[119,"01-710-1408","Y","Xanomeline High Dose",81,"Bilirubin (umol/L)","BILI",21,"WEEK 2",4,"Week 2",2,"ADLBC","R2ALHI","Ratio values",0.488571428571],[120,"01-702-1082","Y","Xanomeline Low Dose",54,"Bilirubin (umol/L)","BILI",21,"WEEK 8",8,"Week 8",8,"ADLBC","R2ALHI","Ratio values",0.488571428571],[121,"01-715-1207","Y","Placebo",0,"Bilirubin (umol/L)","BILI",21,"WEEK 6",7,"Week 6",6,"ADLBC","R2ALHI","Ratio values",0.488571428571],[122,"01-704-1127","Y","Placebo",0,"Bilirubin (umol/L)","BILI",21,"WEEK 2",4,"Week 2",2,"ADLBC","R2ALHI","Ratio values",0.488571428571],[123,"01-703-1295","Y","Xanomeline High Dose",81,"Bilirubin (umol/L)","BILI",21,"WEEK 2",4,"Week 2",2,"ADLBC","R2ALHI","Ratio values",0.488571428571],[124,"01-701-1097","Y","Xanomeline Low Dose",54,"Bilirubin (umol/L)","BILI",21,"WEEK 4",5,"Week 4",4,"ADLBC","R2ALHI","Ratio values",0.488571428571],[125,"01-701-1383","Y","Xanomeline High Dose",81,"Bilirubin (umol/L)","BILI",21,"WEEK 12",9,"Week 12",12,"ADLBC","R2ALHI","Ratio values",0.488571428571],[126,"01-701-1180","Y","Xanomeline High Dose",81,"Bilirubin (umol/L)","BILI",21,"WEEK 4",5,"Week 4",4,"ADLBC","R2ALHI","Ratio values",0.488571428571],[127,"01-709-1168","Y","Xanomeline High Dose",81,"Bilirubin (umol/L)","BILI",21,"WEEK 8",8,"Week 8",8,"ADLBC","R2ALHI","Ratio values",0.488571428571],[128,"01-704-1074","Y","Xanomeline High Dose",81,"Bilirubin (umol/L)","BILI",21,"WEEK 8",8,"Week 8",8,"ADLBC","R2ALHI","Ratio values",0.488571428571],[129,"01-704-1233","Y","Placebo",0,"Bilirubin (umol/L)","BILI",21,"WEEK 4",5,"Week 4",4,"ADLBC","R2ALHI","Ratio values",0.488571428571],[130,"01-704-1065","Y","Xanomeline High Dose",81,"Bilirubin (umol/L)","BILI",21,"WEEK 6",7,"Week 6",6,"ADLBC","R2ALHI","Ratio values",0.488571428571],[131,"01-703-1258","Y","Xanomeline High Dose",81,"Bilirubin (umol/L)","BILI",21,"WEEK 16",10,"Week 16",16,"ADLBC","R2ALHI","Ratio values",0.57],[132,"01-710-1166","Y","Xanomeline Low Dose",54,"Bilirubin (umol/L)","BILI",21,"WEEK 12",9,"Week 12",12,"ADLBC","R2ALHI","Ratio values",0.57],[133,"01-703-1175","Y","Placebo",0,"Bilirubin (umol/L)","BILI",21,"WEEK 2",4,"Week 2",2,"ADLBC","R2ALHI","Ratio values",0.57],[134,"01-710-1354","Y","Xanomeline High Dose",81,"Bilirubin (umol/L)","BILI",21,"WEEK 16",10,"Week 16",16,"ADLBC","R2ALHI","Ratio values",0.57],[135,"01-701-1148","Y","Xanomeline High Dose",81,"Bilirubin (umol/L)","BILI",21,"WEEK 16",10,"Week 16",16,"ADLBC","R2ALHI","Ratio values",0.57],[136,"01-709-1238","Y","Xanomeline High Dose",81,"Bilirubin (umol/L)","BILI",21,"WEEK 2",4,"Week 2",2,"ADLBC","R2ALHI","Ratio values",0.57],[137,"01-710-1077","Y","Placebo",0,"Bilirubin (umol/L)","BILI",21,"WEEK 6",7,"Week 6",6,"ADLBC","R2ALHI","Ratio values",0.57],[138,"01-708-1213","Y","Xanomeline High Dose",81,"Bilirubin (umol/L)","BILI",21,"WEEK 2",4,"Week 2",2,"ADLBC","R2ALHI","Ratio values",0.57],[139,"01-713-1141","Y","Xanomeline High Dose",81,"Bilirubin (umol/L)","BILI",21,"WEEK 4",5,"Week 4",4,"ADLBC","R2ALHI","Ratio values",0.57],[140,"01-704-1260","Y","Placebo",0,"Bilirubin (umol/L)","BILI",21,"WEEK 2",4,"Week 2",2,"ADLBC","R2ALHI","Ratio values",0.57],[141,"01-708-1087","Y","Placebo",0,"Bilirubin (umol/L)","BILI",21,"WEEK 24",12,"Week 24",24,"ADLBC","R2ALHI","Ratio values",0.57],[142,"01-703-1210","Y","Placebo",0,"Bilirubin (umol/L)","BILI",21,"WEEK 4",5,"Week 4",4,"ADLBC","R2ALHI","Ratio values",0.57],[143,"01-713-1269","Y","Placebo",0,"Bilirubin (umol/L)","BILI",21,"WEEK 4",5,"Week 4",4,"ADLBC","R2ALHI","Ratio values",0.57],[144,"01-710-1270","Y","Xanomeline Low Dose",54,"Bilirubin (umol/L)","BILI",21,"WEEK 2",4,"Week 2",2,"ADLBC","R2ALHI","Ratio values",0.57],[145,"01-713-1106","Y","Xanomeline High Dose",81,"Bilirubin (umol/L)","BILI",21,"WEEK 6",7,"Week 6",6,"ADLBC","R2ALHI","Ratio values",0.57],[146,"01-714-1425","Y","Xanomeline High Dose",81,"Bilirubin (umol/L)","BILI",21,"WEEK 2",4,"Week 2",2,"ADLBC","R2ALHI","Ratio values",0.57],[147,"01-704-1009","Y","Xanomeline Low Dose",54,"Bilirubin (umol/L)","BILI",21,"WEEK 2",4,"Week 2",2,"ADLBC","R2ALHI","Ratio values",0.57],[148,"01-714-1288","Y","Xanomeline High Dose",81,"Bilirubin (umol/L)","BILI",21,"WEEK 2",4,"Week 2",2,"ADLBC","R2ALHI","Ratio values",0.57],[149,"01-705-1292","Y","Xanomeline Low Dose",54,"Bilirubin (umol/L)","BILI",21,"WEEK 24",12,"Week 24",24,"ADLBC","R2ALHI","Ratio values",0.57],[150,"01-703-1403","Y","Xanomeline High Dose",81,"Bilirubin (umol/L)","BILI",21,"WEEK 2",4,"Week 2",2,"ADLBC","R2ALHI","Ratio values",0.57],[151,"01-701-1130","Y","Placebo",0,"Bilirubin (umol/L)","BILI",21,"WEEK 24",12,"Week 24",24,"ADLBC","R2ALHI","Ratio values",0.57],[152,"01-705-1281","Y","Xanomeline High Dose",81,"Bilirubin (umol/L)","BILI",21,"WEEK 16",10,"Week 16",16,"ADLBC","R2ALHI","Ratio values",0.57],[153,"01-716-1063","Y","Xanomeline Low Dose",54,"Bilirubin (umol/L)","BILI",21,"WEEK 8",8,"Week 8",8,"ADLBC","R2ALHI","Ratio values",0.57],[154,"01-705-1059","Y","Placebo",0,"Bilirubin (umol/L)","BILI",21,"WEEK 2",4,"Week 2",2,"ADLBC","R2ALHI","Ratio values",0.57],[155,"01-704-1445","Y","Placebo",0,"Bilirubin (umol/L)","BILI",21,"WEEK 8",8,"Week 8",8,"ADLBC","R2ALHI","Ratio values",0.57],[156,"01-718-1254","Y","Xanomeline Low Dose",54,"Bilirubin (umol/L)","BILI",21,"WEEK 4",5,"Week 4",4,"ADLBC","R2ALHI","Ratio values",0.57],[157,"01-701-1192","Y","Xanomeline Low Dose",54,"Bilirubin (umol/L)","BILI",21,"WEEK 2",4,"Week 2",2,"ADLBC","R2ALHI","Ratio values",0.57],[158,"01-716-1373","Y","Xanomeline High Dose",81,"Bilirubin (umol/L)","BILI",21,"WEEK 6",7,"Week 6",6,"ADLBC","R2ALHI","Ratio values",0.57],[159,"01-710-1070","Y","Xanomeline High Dose",81,"Bilirubin (umol/L)","BILI",21,"WEEK 2",4,"Week 2",2,"ADLBC","R2ALHI","Ratio values",0.57],[160,"01-709-1339","Y","Placebo",0,"Bilirubin (umol/L)","BILI",21,"WEEK 4",5,"Week 4",4,"ADLBC","R2ALHI","Ratio values",0.57],[161,"01-710-1060","Y","Placebo",0,"Bilirubin (umol/L)","BILI",21,"WEEK 4",5,"Week 4",4,"ADLBC","R2ALHI","Ratio values",0.57],[162,"01-710-1053","Y","Xanomeline Low Dose",54,"Bilirubin (umol/L)","BILI",21,"WEEK 6",7,"Week 6",6,"ADLBC","R2ALHI","Ratio values",0.57],[163,"01-710-1006","Y","Xanomeline High Dose",81,"Bilirubin (umol/L)","BILI",21,"WEEK 24",12,"Week 24",24,"ADLBC","R2ALHI","Ratio values",0.57],[164,"01-718-1150","Y","Placebo",0,"Bilirubin (umol/L)","BILI",21,"WEEK 12",9,"Week 12",12,"ADLBC","R2ALHI","Ratio values",0.57],[165,"01-708-1316","Y","Placebo",0,"Bilirubin (umol/L)","BILI",21,"WEEK 12",9,"Week 12",12,"ADLBC","R2ALHI","Ratio values",0.57],[166,"01-708-1253","Y","Placebo",0,"Bilirubin (umol/L)","BILI",21,"WEEK 6",7,"Week 6",6,"ADLBC","R2ALHI","Ratio values",0.57],[167,"01-709-1102","Y","Xanomeline Low Dose",54,"Bilirubin (umol/L)","BILI",21,"WEEK 2",4,"Week 2",2,"ADLBC","R2ALHI","Ratio values",0.57],[168,"01-704-1093","Y","Xanomeline High Dose",81,"Bilirubin (umol/L)","BILI",21,"WEEK 8",8,"Week 8",8,"ADLBC","R2ALHI","Ratio values",0.57],[169,"01-709-1099","Y","Xanomeline High Dose",81,"Bilirubin (umol/L)","BILI",21,"WEEK 26",13,"Week 26",26,"ADLBC","R2ALHI","Ratio values",0.57],[170,"01-704-1017","Y","Xanomeline High Dose",81,"Bilirubin (umol/L)","BILI",21,"WEEK 4",5,"Week 4",4,"ADLBC","R2ALHI","Ratio values",0.651428571429],[171,"01-717-1174","Y","Xanomeline High Dose",81,"Bilirubin (umol/L)","BILI",21,"WEEK 26",13,"Week 26",26,"ADLBC","R2ALHI","Ratio values",0.651428571429],[172,"01-708-1342","Y","Placebo",0,"Bilirubin (umol/L)","BILI",21,"WEEK 16",10,"Week 16",16,"ADLBC","R2ALHI","Ratio values",0.651428571429],[173,"01-703-1182","Y","Xanomeline Low Dose",54,"Bilirubin (umol/L)","BILI",21,"WEEK 4",5,"Week 4",4,"ADLBC","R2ALHI","Ratio values",0.651428571429],[174,"01-708-1336","Y","Xanomeline High Dose",81,"Bilirubin (umol/L)","BILI",21,"WEEK 4",5,"Week 4",4,"ADLBC","R2ALHI","Ratio values",0.651428571429],[175,"01-701-1133","Y","Xanomeline High Dose",81,"Bilirubin (umol/L)","BILI",21,"WEEK 16",10,"Week 16",16,"ADLBC","R2ALHI","Ratio values",0.651428571429],[176,"01-713-1043","Y","Xanomeline Low Dose",54,"Bilirubin (umol/L)","BILI",21,"WEEK 24",12,"Week 24",24,"ADLBC","R2ALHI","Ratio values",0.651428571429],[177,"01-715-1085","Y","Xanomeline Low Dose",54,"Bilirubin (umol/L)","BILI",21,"WEEK 12",9,"Week 12",12,"ADLBC","R2ALHI","Ratio values",0.651428571429],[178,"01-710-1264","Y","Placebo",0,"Bilirubin (umol/L)","BILI",21,"WEEK 8",8,"Week 8",8,"ADLBC","R2ALHI","Ratio values",0.651428571429],[179,"01-710-1187","Y","Xanomeline High Dose",81,"Bilirubin (umol/L)","BILI",21,"WEEK 4",5,"Week 4",4,"ADLBC","R2ALHI","Ratio values",0.651428571429],[180,"01-716-1108","Y","Placebo",0,"Bilirubin (umol/L)","BILI",21,"WEEK 20",11,"Week 20",20,"ADLBC","R2ALHI","Ratio values",0.651428571429],[181,"01-701-1429","Y","Xanomeline Low Dose",54,"Bilirubin (umol/L)","BILI",21,"WEEK 2",4,"Week 2",2,"ADLBC","R2ALHI","Ratio values",0.651428571429],[182,"01-704-1266","Y","Xanomeline High Dose",81,"Bilirubin (umol/L)","BILI",21,"WEEK 4",5,"Week 4",4,"ADLBC","R2ALHI","Ratio values",0.651428571429],[183,"01-716-1418","Y","Xanomeline High Dose",81,"Bilirubin (umol/L)","BILI",21,"WEEK 12",9,"Week 12",12,"ADLBC","R2ALHI","Ratio values",0.651428571429],[184,"01-701-1415","Y","Placebo",0,"Bilirubin (umol/L)","BILI",21,"WEEK 26",13,"Week 26",26,"ADLBC","R2ALHI","Ratio values",0.651428571429],[185,"01-704-1164","Y","Placebo",0,"Bilirubin (umol/L)","BILI",21,"WEEK 2",4,"Week 2",2,"ADLBC","R2ALHI","Ratio values",0.651428571429],[186,"01-718-1328","Y","Xanomeline High Dose",81,"Bilirubin (umol/L)","BILI",21,"WEEK 12",9,"Week 12",12,"ADLBC","R2ALHI","Ratio values",0.651428571429],[187,"01-704-1114","Y","Xanomeline Low Dose",54,"Bilirubin (umol/L)","BILI",21,"WEEK 6",7,"Week 6",6,"ADLBC","R2ALHI","Ratio values",0.651428571429],[188,"01-701-1360","Y","Xanomeline High Dose",81,"Bilirubin (umol/L)","BILI",21,"WEEK 2",4,"Week 2",2,"ADLBC","R2ALHI","Ratio values",0.651428571429],[189,"01-709-1088","Y","Placebo",0,"Bilirubin (umol/L)","BILI",21,"WEEK 12",9,"Week 12",12,"ADLBC","R2ALHI","Ratio values",0.651428571429],[190,"01-701-1028","Y","Xanomeline High Dose",81,"Bilirubin (umol/L)","BILI",21,"WEEK 24",12,"Week 24",24,"ADLBC","R2ALHI","Ratio values",0.732857142857],[191,"01-716-1364","Y","Xanomeline High Dose",81,"Bilirubin (umol/L)","BILI",21,"WEEK 6",7,"Week 6",6,"ADLBC","R2ALHI","Ratio values",0.732857142857],[192,"01-703-1439","Y","Xanomeline High Dose",81,"Bilirubin (umol/L)","BILI",21,"WEEK 6",7,"Week 6",6,"ADLBC","R2ALHI","Ratio values",0.732857142857],[193,"01-717-1446","Y","Xanomeline Low Dose",54,"Bilirubin (umol/L)","BILI",21,"UNSCHEDULED 13.1",13.1,"",null,"ADLBC","R2ALHI","Ratio values",0.732857142857],[194,"01-716-1024","Y","Placebo",0,"Bilirubin (umol/L)","BILI",21,"WEEK 20",11,"Week 20",20,"ADLBC","R2ALHI","Ratio values",0.732857142857],[195,"01-716-1177","Y","Placebo",0,"Bilirubin (umol/L)","BILI",21,"WEEK 16",10,"Week 16",16,"ADLBC","R2ALHI","Ratio values",0.732857142857],[196,"01-716-1094","Y","Xanomeline Low Dose",54,"Bilirubin (umol/L)","BILI",21,"WEEK 6",7,"Week 6",6,"ADLBC","R2ALHI","Ratio values",0.732857142857],[197,"01-703-1086","Y","Xanomeline Low Dose",54,"Bilirubin (umol/L)","BILI",21,"WEEK 16",10,"Week 16",16,"ADLBC","R2ALHI","Ratio values",0.732857142857],[198,"01-718-1101","Y","Xanomeline High Dose",81,"Bilirubin (umol/L)","BILI",21,"WEEK 6",7,"Week 6",6,"ADLBC","R2ALHI","Ratio values",0.732857142857],[199,"01-709-1285","Y","Xanomeline Low Dose",54,"Bilirubin (umol/L)","BILI",21,"WEEK 2",4,"Week 2",2,"ADLBC","R2ALHI","Ratio values",0.732857142857],[200,"01-708-1297","Y","Xanomeline Low Dose",54,"Bilirubin (umol/L)","BILI",21,"WEEK 12",9,"Week 12",12,"ADLBC","R2ALHI","Ratio values",0.732857142857],[201,"01-705-1310","Y","Xanomeline High Dose",81,"Bilirubin (umol/L)","BILI",21,"WEEK 8",8,"Week 8",8,"ADLBC","R2ALHI","Ratio values",0.732857142857],[202,"01-711-1143","Y","Xanomeline Low Dose",54,"Bilirubin (umol/L)","BILI",21,"WEEK 8",8,"Week 8",8,"ADLBC","R2ALHI","Ratio values",0.732857142857],[203,"01-718-1355","Y","Placebo",0,"Bilirubin (umol/L)","BILI",21,"WEEK 8",8,"Week 8",8,"ADLBC","R2ALHI","Ratio values",0.732857142857],[204,"01-710-1368","Y","Placebo",0,"Bilirubin (umol/L)","BILI",21,"WEEK 2",4,"Week 2",2,"ADLBC","R2ALHI","Ratio values",0.732857142857],[205,"01-704-1388","Y","Placebo",0,"Bilirubin (umol/L)","BILI",21,"WEEK 8",8,"Week 8",8,"ADLBC","R2ALHI","Ratio values",0.732857142857],[206,"01-710-1278","Y","Xanomeline High Dose",81,"Bilirubin (umol/L)","BILI",21,"WEEK 4",5,"Week 4",4,"ADLBC","R2ALHI","Ratio values",0.732857142857],[207,"01-710-1183","Y","Placebo",0,"Bilirubin (umol/L)","BILI",21,"WEEK 2",4,"Week 2",2,"ADLBC","R2ALHI","Ratio values",0.732857142857],[208,"01-704-1351","Y","Placebo",0,"Bilirubin (umol/L)","BILI",21,"WEEK 12",9,"Week 12",12,"ADLBC","R2ALHI","Ratio values",0.732857142857],[209,"01-701-1033","Y","Xanomeline Low Dose",54,"Bilirubin (umol/L)","BILI",21,"WEEK 4",5,"Week 4",4,"ADLBC","R2ALHI","Ratio values",0.732857142857],[210,"01-709-1259","Y","Placebo",0,"Bilirubin (umol/L)","BILI",21,"WEEK 4",5,"Week 4",4,"ADLBC","R2ALHI","Ratio values",0.732857142857],[211,"01-703-1042","Y","Placebo",0,"Bilirubin (umol/L)","BILI",21,"WEEK 6",7,"Week 6",6,"ADLBC","R2ALHI","Ratio values",0.814285714286],[212,"01-701-1444","Y","Xanomeline High Dose",81,"Bilirubin (umol/L)","BILI",21,"WEEK 6",7,"Week 6",6,"ADLBC","R2ALHI","Ratio values",0.814285714286],[213,"01-708-1272","Y","Xanomeline Low Dose",54,"Bilirubin (umol/L)","BILI",21,"WEEK 6",7,"Week 6",6,"ADLBC","R2ALHI","Ratio values",0.814285714286],[214,"01-710-1027","Y","Placebo",0,"Bilirubin (umol/L)","BILI",21,"WEEK 2",4,"Week 2",2,"ADLBC","R2ALHI","Ratio values",0.814285714286],[215,"01-704-1135","Y","Xanomeline Low Dose",54,"Bilirubin (umol/L)","BILI",21,"WEEK 8",8,"Week 8",8,"ADLBC","R2ALHI","Ratio values",0.814285714286],[216,"01-718-1172","Y","Placebo",0,"Bilirubin (umol/L)","BILI",21,"WEEK 4",5,"Week 4",4,"ADLBC","R2ALHI","Ratio values",0.814285714286],[217,"01-709-1020","Y","Xanomeline Low Dose",54,"Bilirubin (umol/L)","BILI",21,"WEEK 26",13,"Week 26",26,"ADLBC","R2ALHI","Ratio values",0.895714285714],[218,"01-716-1441","Y","Placebo",0,"Bilirubin (umol/L)","BILI",21,"WEEK 2",4,"Week 2",2,"ADLBC","R2ALHI","Ratio values",0.895714285714],[219,"01-714-1195","Y","Xanomeline Low Dose",54,"Bilirubin (umol/L)","BILI",21,"WEEK 26",13,"Week 26",26,"ADLBC","R2ALHI","Ratio values",0.895714285714],[220,"01-717-1109","Y","Xanomeline High Dose",81,"Bilirubin (umol/L)","BILI",21,"WEEK 6",7,"Week 6",6,"ADLBC","R2ALHI","Ratio values",0.895714285714],[221,"01-714-1035","Y","Placebo",0,"Bilirubin (umol/L)","BILI",21,"WEEK 4",5,"Week 4",4,"ADLBC","R2ALHI","Ratio values",0.895714285714],[222,"01-704-1008","Y","Xanomeline High Dose",81,"Bilirubin (umol/L)","BILI",21,"WEEK 6",7,"Week 6",6,"ADLBC","R2ALHI","Ratio values",0.895714285714],[223,"01-701-1287","Y","Xanomeline High Dose",81,"Bilirubin (umol/L)","BILI",21,"WEEK 26",13,"Week 26",26,"ADLBC","R2ALHI","Ratio values",0.895714285714],[224,"01-716-1311","Y","Xanomeline Low Dose",54,"Bilirubin (umol/L)","BILI",21,"WEEK 20",11,"Week 20",20,"ADLBC","R2ALHI","Ratio values",0.895714285714],[225,"01-704-1120","Y","Xanomeline Low Dose",54,"Bilirubin (umol/L)","BILI",21,"WEEK 8",8,"Week 8",8,"ADLBC","R2ALHI","Ratio values",0.895714285714],[226,"01-708-1032","Y","Xanomeline Low Dose",54,"Bilirubin (umol/L)","BILI",21,"WEEK 4",5,"Week 4",4,"ADLBC","R2ALHI","Ratio values",0.977142857143],[227,"01-705-1303","Y","Xanomeline High Dose",81,"Bilirubin (umol/L)","BILI",21,"WEEK 16",10,"Week 16",16,"ADLBC","R2ALHI","Ratio values",0.977142857143],[228,"01-701-1234","Y","Placebo",0,"Bilirubin (umol/L)","BILI",21,"WEEK 12",9,"Week 12",12,"ADLBC","R2ALHI","Ratio values",0.977142857143],[229,"01-708-1216","Y","Xanomeline High Dose",81,"Bilirubin (umol/L)","BILI",21,"WEEK 4",5,"Week 4",4,"ADLBC","R2ALHI","Ratio values",0.977142857143],[230,"01-717-1357","Y","Xanomeline High Dose",81,"Bilirubin (umol/L)","BILI",21,"WEEK 12",9,"Week 12",12,"ADLBC","R2ALHI","Ratio values",0.977142857143],[231,"01-710-1154","Y","Xanomeline Low Dose",54,"Bilirubin (umol/L)","BILI",21,"WEEK 2",4,"Week 2",2,"ADLBC","R2ALHI","Ratio values",0.977142857143],[232,"01-704-1325","Y","Xanomeline Low Dose",54,"Bilirubin (umol/L)","BILI",21,"WEEK 2",4,"Week 2",2,"ADLBC","R2ALHI","Ratio values",0.977142857143],[233,"01-704-1218","Y","Xanomeline Low Dose",54,"Bilirubin (umol/L)","BILI",21,"WEEK 6",7,"Week 6",6,"ADLBC","R2ALHI","Ratio values",0.977142857143],[234,"01-704-1010","Y","Placebo",0,"Bilirubin (umol/L)","BILI",21,"WEEK 6",7,"Week 6",6,"ADLBC","R2ALHI","Ratio values",1.05857142857],[235,"01-705-1349","Y","Placebo",0,"Bilirubin (umol/L)","BILI",21,"WEEK 24",12,"Week 24",24,"ADLBC","R2ALHI","Ratio values",1.14],[236,"01-701-1211","Y","Xanomeline Low Dose",54,"Bilirubin (umol/L)","BILI",21,"WEEK 2",4,"Week 2",2,"ADLBC","R2ALHI","Ratio values",1.22142857143],[237,"01-708-1378","Y","Placebo",0,"Bilirubin (umol/L)","BILI",21,"WEEK 20",11,"Week 20",20,"ADLBC","R2ALHI","Ratio values",1.22142857143],[238,"01-708-1406","Y","Xanomeline High Dose",81,"Bilirubin (umol/L)","BILI",21,"WEEK 26",13,"Week 26",26,"ADLBC","R2ALHI","Ratio values",1.30285714286],[239,"01-709-1312","Y","Placebo",0,"Bilirubin (umol/L)","BILI",21,"WEEK 20",11,"Week 20",20,"ADLBC","R2ALHI","Ratio values",1.30285714286],[240,"01-704-1332","Y","Xanomeline High Dose",81,"Bilirubin (umol/L)","BILI",21,"WEEK 12",9,"Week 12",12,"ADLBC","R2ALHI","Ratio values",1.38428571429],[241,"01-716-1044","Y","Placebo",0,"Bilirubin (umol/L)","BILI",21,"WEEK 26",13,"Week 26",26,"ADLBC","R2ALHI","Ratio values",1.46571428571],[242,"01-701-1317","Y","Xanomeline Low Dose",54,"Bilirubin (umol/L)","BILI",21,"WEEK 26",13,"Week 26",26,"ADLBC","R2ALHI","Ratio values",1.54714285714],[243,"01-701-1239","Y","Xanomeline High Dose",81,"Bilirubin (umol/L)","BILI",21,"WEEK 4",5,"Week 4",4,"ADLBC","R2ALHI","Ratio values",1.62857142857],[244,"01-709-1309","Y","Xanomeline High Dose",81,"Bilirubin (umol/L)","BILI",21,"WEEK 12",9,"Week 12",12,"ADLBC","R2ALHI","Ratio values",1.71],[245,"01-709-1029","Y","Xanomeline High Dose",81,"Bilirubin (umol/L)","BILI",21,"WEEK 20",11,"Week 20",20,"ADLBC","R2ALHI","Ratio values",2.52428571429],[246,"01-705-1186","Y","Placebo",0,"Bilirubin (umol/L)","BILI",21,"UNSCHEDULED 4.1",4.1,"",null,"ADLBC","R2ALHI","Ratio values",5.94428571429],[247,"01-711-1433","Y","Xanomeline High Dose",81,"Aspartate Aminotransferase (U/L)","AST",25,"WEEK 2",4,"Week 2",2,"ADLBC","R2ALHI","Ratio values",0.411764705882],[248,"01-708-1019","Y","Xanomeline Low Dose",54,"Aspartate Aminotransferase (U/L)","AST",25,"WEEK 2",4,"Week 2",2,"ADLBC","R2ALHI","Ratio values",0.416666666667],[249,"01-708-1158","Y","Placebo",0,"Aspartate Aminotransferase (U/L)","AST",25,"WEEK 6",7,"Week 6",6,"ADLBC","R2ALHI","Ratio values",0.441176470588],[250,"01-703-1175","Y","Placebo",0,"Aspartate Aminotransferase (U/L)","AST",25,"WEEK 2",4,"Week 2",2,"ADLBC","R2ALHI","Ratio values",0.444444444444],[251,"01-708-1084","Y","Xanomeline Low Dose",54,"Aspartate Aminotransferase (U/L)","AST",25,"WEEK 20",11,"Week 20",20,"ADLBC","R2ALHI","Ratio values",0.470588235294],[252,"01-715-1319","Y","Xanomeline High Dose",81,"Aspartate Aminotransferase (U/L)","AST",25,"WEEK 2",4,"Week 2",2,"ADLBC","R2ALHI","Ratio values",0.472222222222],[253,"01-704-1332","Y","Xanomeline High Dose",81,"Aspartate Aminotransferase (U/L)","AST",25,"WEEK 8",8,"Week 8",8,"ADLBC","R2ALHI","Ratio values",0.472222222222],[254,"01-704-1017","Y","Xanomeline High Dose",81,"Aspartate Aminotransferase (U/L)","AST",25,"WEEK 2",4,"Week 2",2,"ADLBC","R2ALHI","Ratio values",0.472222222222],[255,"01-716-1030","Y","Xanomeline High Dose",81,"Aspartate Aminotransferase (U/L)","AST",25,"WEEK 2",4,"Week 2",2,"ADLBC","R2ALHI","Ratio values",0.5],[256,"01-715-1155","Y","Placebo",0,"Aspartate Aminotransferase (U/L)","AST",25,"WEEK 4",5,"Week 4",4,"ADLBC","R2ALHI","Ratio values",0.5],[257,"01-713-1269","Y","Placebo",0,"Aspartate Aminotransferase (U/L)","AST",25,"WEEK 26",13,"Week 26",26,"ADLBC","R2ALHI","Ratio values",0.5],[258,"01-710-1271","Y","Placebo",0,"Aspartate Aminotransferase (U/L)","AST",25,"WEEK 4",5,"Week 4",4,"ADLBC","R2ALHI","Ratio values",0.5],[259,"01-708-1087","Y","Placebo",0,"Aspartate Aminotransferase (U/L)","AST",25,"WEEK 24",12,"Week 24",24,"ADLBC","R2ALHI","Ratio values",0.5],[260,"01-701-1442","Y","Xanomeline Low Dose",54,"Aspartate Aminotransferase (U/L)","AST",25,"WEEK 24",12,"Week 24",24,"ADLBC","R2ALHI","Ratio values",0.5],[261,"01-701-1415","Y","Placebo",0,"Aspartate Aminotransferase (U/L)","AST",25,"WEEK 2",4,"Week 2",2,"ADLBC","R2ALHI","Ratio values",0.5],[262,"01-701-1360","Y","Xanomeline High Dose",81,"Aspartate Aminotransferase (U/L)","AST",25,"WEEK 2",4,"Week 2",2,"ADLBC","R2ALHI","Ratio values",0.5],[263,"01-701-1211","Y","Xanomeline Low Dose",54,"Aspartate Aminotransferase (U/L)","AST",25,"WEEK 8",8,"Week 8",8,"ADLBC","R2ALHI","Ratio values",0.5],[264,"01-701-1118","Y","Placebo",0,"Aspartate Aminotransferase (U/L)","AST",25,"WEEK 8",8,"Week 8",8,"ADLBC","R2ALHI","Ratio values",0.5],[265,"01-705-1199","Y","Xanomeline Low Dose",54,"Aspartate Aminotransferase (U/L)","AST",25,"WEEK 2",4,"Week 2",2,"ADLBC","R2ALHI","Ratio values",0.527777777778],[266,"01-704-1093","Y","Xanomeline High Dose",81,"Aspartate Aminotransferase (U/L)","AST",25,"WEEK 12",9,"Week 12",12,"ADLBC","R2ALHI","Ratio values",0.527777777778],[267,"01-701-1444","Y","Xanomeline High Dose",81,"Aspartate Aminotransferase (U/L)","AST",25,"WEEK 6",7,"Week 6",6,"ADLBC","R2ALHI","Ratio values",0.527777777778],[268,"01-701-1317","Y","Xanomeline Low Dose",54,"Aspartate Aminotransferase (U/L)","AST",25,"WEEK 2",4,"Week 2",2,"ADLBC","R2ALHI","Ratio values",0.527777777778],[269,"01-718-1170","Y","Xanomeline Low Dose",54,"Aspartate Aminotransferase (U/L)","AST",25,"WEEK 2",4,"Week 2",2,"ADLBC","R2ALHI","Ratio values",0.529411764706],[270,"01-709-1306","Y","Placebo",0,"Aspartate Aminotransferase (U/L)","AST",25,"WEEK 16",10,"Week 16",16,"ADLBC","R2ALHI","Ratio values",0.529411764706],[271,"01-708-1348","Y","Xanomeline Low Dose",54,"Aspartate Aminotransferase (U/L)","AST",25,"WEEK 20",11,"Week 20",20,"ADLBC","R2ALHI","Ratio values",0.529411764706],[272,"01-704-1164","Y","Placebo",0,"Aspartate Aminotransferase (U/L)","AST",25,"WEEK 2",4,"Week 2",2,"ADLBC","R2ALHI","Ratio values",0.529411764706],[273,"01-703-1096","Y","Placebo",0,"Aspartate Aminotransferase (U/L)","AST",25,"WEEK 4",5,"Week 4",4,"ADLBC","R2ALHI","Ratio values",0.529411764706],[274,"01-710-1249","Y","Xanomeline High Dose",81,"Aspartate Aminotransferase (U/L)","AST",25,"WEEK 6",7,"Week 6",6,"ADLBC","R2ALHI","Ratio values",0.555555555556],[275,"01-709-1088","Y","Placebo",0,"Aspartate Aminotransferase (U/L)","AST",25,"WEEK 16",10,"Week 16",16,"ADLBC","R2ALHI","Ratio values",0.555555555556],[276,"01-701-1188","Y","Xanomeline Low Dose",54,"Aspartate Aminotransferase (U/L)","AST",25,"WEEK 2",4,"Week 2",2,"ADLBC","R2ALHI","Ratio values",0.555555555556],[277,"01-709-1168","Y","Xanomeline High Dose",81,"Aspartate Aminotransferase (U/L)","AST",25,"WEEK 8",8,"Week 8",8,"ADLBC","R2ALHI","Ratio values",0.558823529412],[278,"01-705-1393","Y","Xanomeline Low Dose",54,"Aspartate Aminotransferase (U/L)","AST",25,"WEEK 2",4,"Week 2",2,"ADLBC","R2ALHI","Ratio values",0.558823529412],[279,"01-705-1031","Y","Xanomeline Low Dose",54,"Aspartate Aminotransferase (U/L)","AST",25,"WEEK 2",4,"Week 2",2,"ADLBC","R2ALHI","Ratio values",0.558823529412],[280,"01-704-1135","Y","Xanomeline Low Dose",54,"Aspartate Aminotransferase (U/L)","AST",25,"WEEK 6",7,"Week 6",6,"ADLBC","R2ALHI","Ratio values",0.558823529412],[281,"01-701-1097","Y","Xanomeline Low Dose",54,"Aspartate Aminotransferase (U/L)","AST",25,"WEEK 2",4,"Week 2",2,"ADLBC","R2ALHI","Ratio values",0.583333333333],[282,"01-716-1177","Y","Placebo",0,"Aspartate Aminotransferase (U/L)","AST",25,"WEEK 2",4,"Week 2",2,"ADLBC","R2ALHI","Ratio values",0.583333333333],[283,"01-709-1259","Y","Placebo",0,"Aspartate Aminotransferase (U/L)","AST",25,"WEEK 2",4,"Week 2",2,"ADLBC","R2ALHI","Ratio values",0.583333333333],[284,"01-708-1336","Y","Xanomeline High Dose",81,"Aspartate Aminotransferase (U/L)","AST",25,"WEEK 4",5,"Week 4",4,"ADLBC","R2ALHI","Ratio values",0.583333333333],[285,"01-704-1010","Y","Placebo",0,"Aspartate Aminotransferase (U/L)","AST",25,"WEEK 20",11,"Week 20",20,"ADLBC","R2ALHI","Ratio values",0.583333333333],[286,"01-701-1324","Y","Xanomeline Low Dose",54,"Aspartate Aminotransferase (U/L)","AST",25,"WEEK 12",9,"Week 12",12,"ADLBC","R2ALHI","Ratio values",0.583333333333],[287,"01-718-1066","Y","Xanomeline Low Dose",54,"Aspartate Aminotransferase (U/L)","AST",25,"WEEK 2",4,"Week 2",2,"ADLBC","R2ALHI","Ratio values",0.588235294118],[288,"01-716-1298","Y","Xanomeline Low Dose",54,"Aspartate Aminotransferase (U/L)","AST",25,"WEEK 2",4,"Week 2",2,"ADLBC","R2ALHI","Ratio values",0.588235294118],[289,"01-715-1397","Y","Placebo",0,"Aspartate Aminotransferase (U/L)","AST",25,"WEEK 6",7,"Week 6",6,"ADLBC","R2ALHI","Ratio values",0.588235294118],[290,"01-710-1368","Y","Placebo",0,"Aspartate Aminotransferase (U/L)","AST",25,"WEEK 6",7,"Week 6",6,"ADLBC","R2ALHI","Ratio values",0.588235294118],[291,"01-710-1235","Y","Xanomeline Low Dose",54,"Aspartate Aminotransferase (U/L)","AST",25,"WEEK 2",4,"Week 2",2,"ADLBC","R2ALHI","Ratio values",0.588235294118],[292,"01-709-1020","Y","Xanomeline Low Dose",54,"Aspartate Aminotransferase (U/L)","AST",25,"WEEK 2",4,"Week 2",2,"ADLBC","R2ALHI","Ratio values",0.588235294118],[293,"01-710-1187","Y","Xanomeline High Dose",81,"Aspartate Aminotransferase (U/L)","AST",25,"WEEK 2",4,"Week 2",2,"ADLBC","R2ALHI","Ratio values",0.588235294118],[294,"01-701-1387","Y","Placebo",0,"Aspartate Aminotransferase (U/L)","AST",25,"WEEK 2",4,"Week 2",2,"ADLBC","R2ALHI","Ratio values",0.588235294118],[295,"01-701-1146","Y","Xanomeline High Dose",81,"Aspartate Aminotransferase (U/L)","AST",25,"WEEK 2",4,"Week 2",2,"ADLBC","R2ALHI","Ratio values",0.588235294118],[296,"01-718-1328","Y","Xanomeline High Dose",81,"Aspartate Aminotransferase (U/L)","AST",25,"WEEK 12",9,"Week 12",12,"ADLBC","R2ALHI","Ratio values",0.611111111111],[297,"01-718-1172","Y","Placebo",0,"Aspartate Aminotransferase (U/L)","AST",25,"WEEK 12",9,"Week 12",12,"ADLBC","R2ALHI","Ratio values",0.611111111111],[298,"01-715-1405","Y","Xanomeline Low Dose",54,"Aspartate Aminotransferase (U/L)","AST",25,"WEEK 2",4,"Week 2",2,"ADLBC","R2ALHI","Ratio values",0.611111111111],[299,"01-710-1002","Y","Xanomeline Low Dose",54,"Aspartate Aminotransferase (U/L)","AST",25,"WEEK 2",4,"Week 2",2,"ADLBC","R2ALHI","Ratio values",0.611111111111],[300,"01-708-1297","Y","Xanomeline Low Dose",54,"Aspartate Aminotransferase (U/L)","AST",25,"WEEK 12",9,"Week 12",12,"ADLBC","R2ALHI","Ratio values",0.611111111111],[301,"01-705-1303","Y","Xanomeline High Dose",81,"Aspartate Aminotransferase (U/L)","AST",25,"WEEK 4",5,"Week 4",4,"ADLBC","R2ALHI","Ratio values",0.611111111111],[302,"01-717-1344","Y","Placebo",0,"Aspartate Aminotransferase (U/L)","AST",25,"WEEK 8",8,"Week 8",8,"ADLBC","R2ALHI","Ratio values",0.617647058824],[303,"01-710-1314","Y","Placebo",0,"Aspartate Aminotransferase (U/L)","AST",25,"WEEK 4",5,"Week 4",4,"ADLBC","R2ALHI","Ratio values",0.617647058824],[304,"01-709-1081","Y","Xanomeline Low Dose",54,"Aspartate Aminotransferase (U/L)","AST",25,"WEEK 8",8,"Week 8",8,"ADLBC","R2ALHI","Ratio values",0.617647058824],[305,"01-708-1213","Y","Xanomeline High Dose",81,"Aspartate Aminotransferase (U/L)","AST",25,"WEEK 2",4,"Week 2",2,"ADLBC","R2ALHI","Ratio values",0.617647058824],[306,"01-705-1377","Y","Xanomeline High Dose",81,"Aspartate Aminotransferase (U/L)","AST",25,"WEEK 2",4,"Week 2",2,"ADLBC","R2ALHI","Ratio values",0.617647058824],[307,"01-718-1355","Y","Placebo",0,"Aspartate Aminotransferase (U/L)","AST",25,"WEEK 4",5,"Week 4",4,"ADLBC","R2ALHI","Ratio values",0.638888888889],[308,"01-713-1256","Y","Placebo",0,"Aspartate Aminotransferase (U/L)","AST",25,"WEEK 24",12,"Week 24",24,"ADLBC","R2ALHI","Ratio values",0.638888888889],[309,"01-710-1408","Y","Xanomeline High Dose",81,"Aspartate Aminotransferase (U/L)","AST",25,"WEEK 4",5,"Week 4",4,"ADLBC","R2ALHI","Ratio values",0.638888888889],[310,"01-710-1264","Y","Placebo",0,"Aspartate Aminotransferase (U/L)","AST",25,"WEEK 6",7,"Week 6",6,"ADLBC","R2ALHI","Ratio values",0.638888888889],[311,"01-710-1154","Y","Xanomeline Low Dose",54,"Aspartate Aminotransferase (U/L)","AST",25,"WEEK 2",4,"Week 2",2,"ADLBC","R2ALHI","Ratio values",0.638888888889],[312,"01-709-1424","Y","Xanomeline High Dose",81,"Aspartate Aminotransferase (U/L)","AST",25,"UNSCHEDULED 4.1",4.1,"",null,"ADLBC","R2ALHI","Ratio values",0.638888888889],[313,"01-704-1435","Y","Placebo",0,"Aspartate Aminotransferase (U/L)","AST",25,"WEEK 4",5,"Week 4",4,"ADLBC","R2ALHI","Ratio values",0.638888888889],[314,"01-704-1114","Y","Xanomeline Low Dose",54,"Aspartate Aminotransferase (U/L)","AST",25,"WEEK 2",4,"Week 2",2,"ADLBC","R2ALHI","Ratio values",0.638888888889],[315,"01-703-1182","Y","Xanomeline Low Dose",54,"Aspartate Aminotransferase (U/L)","AST",25,"WEEK 6",7,"Week 6",6,"ADLBC","R2ALHI","Ratio values",0.638888888889],[316,"01-716-1308","Y","Placebo",0,"Aspartate Aminotransferase (U/L)","AST",25,"WEEK 6",7,"Week 6",6,"ADLBC","R2ALHI","Ratio values",0.647058823529],[317,"01-715-1085","Y","Xanomeline Low Dose",54,"Aspartate Aminotransferase (U/L)","AST",25,"WEEK 20",11,"Week 20",20,"ADLBC","R2ALHI","Ratio values",0.647058823529],[318,"01-710-1300","Y","Xanomeline Low Dose",54,"Aspartate Aminotransferase (U/L)","AST",25,"WEEK 2",4,"Week 2",2,"ADLBC","R2ALHI","Ratio values",0.647058823529],[319,"01-708-1428","Y","Xanomeline Low Dose",54,"Aspartate Aminotransferase (U/L)","AST",25,"WEEK 8",8,"Week 8",8,"ADLBC","R2ALHI","Ratio values",0.647058823529],[320,"01-704-1233","Y","Placebo",0,"Aspartate Aminotransferase (U/L)","AST",25,"WEEK 6",7,"Week 6",6,"ADLBC","R2ALHI","Ratio values",0.647058823529],[321,"01-704-1218","Y","Xanomeline Low Dose",54,"Aspartate Aminotransferase (U/L)","AST",25,"WEEK 6",7,"Week 6",6,"ADLBC","R2ALHI","Ratio values",0.647058823529],[322,"01-703-1299","Y","Placebo",0,"Aspartate Aminotransferase (U/L)","AST",25,"WEEK 12",9,"Week 12",12,"ADLBC","R2ALHI","Ratio values",0.647058823529],[323,"01-718-1101","Y","Xanomeline High Dose",81,"Aspartate Aminotransferase (U/L)","AST",25,"WEEK 6",7,"Week 6",6,"ADLBC","R2ALHI","Ratio values",0.666666666667],[324,"01-714-1425","Y","Xanomeline High Dose",81,"Aspartate Aminotransferase (U/L)","AST",25,"WEEK 2",4,"Week 2",2,"ADLBC","R2ALHI","Ratio values",0.666666666667],[325,"01-709-1285","Y","Xanomeline Low Dose",54,"Aspartate Aminotransferase (U/L)","AST",25,"WEEK 8",8,"Week 8",8,"ADLBC","R2ALHI","Ratio values",0.666666666667],[326,"01-704-1351","Y","Placebo",0,"Aspartate Aminotransferase (U/L)","AST",25,"WEEK 2",4,"Week 2",2,"ADLBC","R2ALHI","Ratio values",0.666666666667],[327,"01-704-1325","Y","Xanomeline Low Dose",54,"Aspartate Aminotransferase (U/L)","AST",25,"WEEK 6",7,"Week 6",6,"ADLBC","R2ALHI","Ratio values",0.666666666667],[328,"01-703-1403","Y","Xanomeline High Dose",81,"Aspartate Aminotransferase (U/L)","AST",25,"WEEK 2",4,"Week 2",2,"ADLBC","R2ALHI","Ratio values",0.666666666667],[329,"01-701-1392","Y","Placebo",0,"Aspartate Aminotransferase (U/L)","AST",25,"WEEK 12",9,"Week 12",12,"ADLBC","R2ALHI","Ratio values",0.666666666667],[330,"01-701-1111","Y","Xanomeline Low Dose",54,"Aspartate Aminotransferase (U/L)","AST",25,"WEEK 2",4,"Week 2",2,"ADLBC","R2ALHI","Ratio values",0.676470588235],[331,"01-716-1026","Y","Placebo",0,"Aspartate Aminotransferase (U/L)","AST",25,"WEEK 12",9,"Week 12",12,"ADLBC","R2ALHI","Ratio values",0.676470588235],[332,"01-711-1012","Y","Xanomeline High Dose",81,"Aspartate Aminotransferase (U/L)","AST",25,"WEEK 4",5,"Week 4",4,"ADLBC","R2ALHI","Ratio values",0.676470588235],[333,"01-710-1183","Y","Placebo",0,"Aspartate Aminotransferase (U/L)","AST",25,"WEEK 2",4,"Week 2",2,"ADLBC","R2ALHI","Ratio values",0.676470588235],[334,"01-707-1037","Y","Xanomeline Low Dose",54,"Aspartate Aminotransferase (U/L)","AST",25,"WEEK 2",4,"Week 2",2,"ADLBC","R2ALHI","Ratio values",0.676470588235],[335,"01-706-1041","Y","Placebo",0,"Aspartate Aminotransferase (U/L)","AST",25,"WEEK 20",11,"Week 20",20,"ADLBC","R2ALHI","Ratio values",0.676470588235],[336,"01-705-1281","Y","Xanomeline High Dose",81,"Aspartate Aminotransferase (U/L)","AST",25,"WEEK 2",4,"Week 2",2,"ADLBC","R2ALHI","Ratio values",0.676470588235],[337,"01-701-1203","Y","Placebo",0,"Aspartate Aminotransferase (U/L)","AST",25,"WEEK 6",7,"Week 6",6,"ADLBC","R2ALHI","Ratio values",0.676470588235],[338,"01-701-1181","Y","Xanomeline High Dose",81,"Aspartate Aminotransferase (U/L)","AST",25,"WEEK 2",4,"Week 2",2,"ADLBC","R2ALHI","Ratio values",0.676470588235],[339,"01-701-1133","Y","Xanomeline High Dose",81,"Aspartate Aminotransferase (U/L)","AST",25,"WEEK 24",12,"Week 24",24,"ADLBC","R2ALHI","Ratio values",0.676470588235],[340,"01-701-1115","Y","Xanomeline Low Dose",54,"Aspartate Aminotransferase (U/L)","AST",25,"WEEK 2",4,"Week 2",2,"ADLBC","R2ALHI","Ratio values",0.694444444444],[341,"01-716-1094","Y","Xanomeline Low Dose",54,"Aspartate Aminotransferase (U/L)","AST",25,"WEEK 2",4,"Week 2",2,"ADLBC","R2ALHI","Ratio values",0.694444444444],[342,"01-710-1278","Y","Xanomeline High Dose",81,"Aspartate Aminotransferase (U/L)","AST",25,"WEEK 8",8,"Week 8",8,"ADLBC","R2ALHI","Ratio values",0.694444444444],[343,"01-701-1180","Y","Xanomeline High Dose",81,"Aspartate Aminotransferase (U/L)","AST",25,"WEEK 2",4,"Week 2",2,"ADLBC","R2ALHI","Ratio values",0.694444444444],[344,"01-701-1047","Y","Placebo",0,"Aspartate Aminotransferase (U/L)","AST",25,"WEEK 4",5,"Week 4",4,"ADLBC","R2ALHI","Ratio values",0.705882352941],[345,"01-716-1108","Y","Placebo",0,"Aspartate Aminotransferase (U/L)","AST",25,"WEEK 16",10,"Week 16",16,"ADLBC","R2ALHI","Ratio values",0.705882352941],[346,"01-710-1315","Y","Placebo",0,"Aspartate Aminotransferase (U/L)","AST",25,"WEEK 12",9,"Week 12",12,"ADLBC","R2ALHI","Ratio values",0.705882352941],[347,"01-710-1077","Y","Placebo",0,"Aspartate Aminotransferase (U/L)","AST",25,"WEEK 2",4,"Week 2",2,"ADLBC","R2ALHI","Ratio values",0.705882352941],[348,"01-710-1070","Y","Xanomeline High Dose",81,"Aspartate Aminotransferase (U/L)","AST",25,"WEEK 2",4,"Week 2",2,"ADLBC","R2ALHI","Ratio values",0.705882352941],[349,"01-709-1312","Y","Placebo",0,"Aspartate Aminotransferase (U/L)","AST",25,"WEEK 16",10,"Week 16",16,"ADLBC","R2ALHI","Ratio values",0.705882352941],[350,"01-708-1178","Y","Xanomeline High Dose",81,"Aspartate Aminotransferase (U/L)","AST",25,"WEEK 4",5,"Week 4",4,"ADLBC","R2ALHI","Ratio values",0.705882352941],[351,"01-706-1384","Y","Xanomeline Low Dose",54,"Aspartate Aminotransferase (U/L)","AST",25,"WEEK 2",4,"Week 2",2,"ADLBC","R2ALHI","Ratio values",0.705882352941],[352,"01-705-1282","Y","Placebo",0,"Aspartate Aminotransferase (U/L)","AST",25,"WEEK 4",5,"Week 4",4,"ADLBC","R2ALHI","Ratio values",0.705882352941],[353,"01-701-1192","Y","Xanomeline Low Dose",54,"Aspartate Aminotransferase (U/L)","AST",25,"WEEK 24",12,"Week 24",24,"ADLBC","R2ALHI","Ratio values",0.705882352941],[354,"01-701-1033","Y","Xanomeline Low Dose",54,"Aspartate Aminotransferase (U/L)","AST",25,"WEEK 2",4,"Week 2",2,"ADLBC","R2ALHI","Ratio values",0.722222222222],[355,"01-718-1254","Y","Xanomeline Low Dose",54,"Aspartate Aminotransferase (U/L)","AST",25,"WEEK 26",13,"Week 26",26,"ADLBC","R2ALHI","Ratio values",0.722222222222],[356,"01-710-1021","Y","Xanomeline High Dose",81,"Aspartate Aminotransferase (U/L)","AST",25,"WEEK 6",7,"Week 6",6,"ADLBC","R2ALHI","Ratio values",0.722222222222],[357,"01-709-1238","Y","Xanomeline High Dose",81,"Aspartate Aminotransferase (U/L)","AST",25,"WEEK 12",9,"Week 12",12,"ADLBC","R2ALHI","Ratio values",0.722222222222],[358,"01-708-1378","Y","Placebo",0,"Aspartate Aminotransferase (U/L)","AST",25,"WEEK 2",4,"Week 2",2,"ADLBC","R2ALHI","Ratio values",0.722222222222],[359,"01-708-1272","Y","Xanomeline Low Dose",54,"Aspartate Aminotransferase (U/L)","AST",25,"WEEK 6",7,"Week 6",6,"ADLBC","R2ALHI","Ratio values",0.722222222222],[360,"01-701-1130","Y","Placebo",0,"Aspartate Aminotransferase (U/L)","AST",25,"WEEK 2",4,"Week 2",2,"ADLBC","R2ALHI","Ratio values",0.722222222222],[361,"01-717-1004","Y","Xanomeline Low Dose",54,"Aspartate Aminotransferase (U/L)","AST",25,"WEEK 2",4,"Week 2",2,"ADLBC","R2ALHI","Ratio values",0.735294117647],[362,"01-714-1375","Y","Placebo",0,"Aspartate Aminotransferase (U/L)","AST",25,"WEEK 2",4,"Week 2",2,"ADLBC","R2ALHI","Ratio values",0.735294117647],[363,"01-714-1068","Y","Xanomeline Low Dose",54,"Aspartate Aminotransferase (U/L)","AST",25,"WEEK 2",4,"Week 2",2,"ADLBC","R2ALHI","Ratio values",0.735294117647],[364,"01-713-1073","Y","Xanomeline Low Dose",54,"Aspartate Aminotransferase (U/L)","AST",25,"WEEK 2",4,"Week 2",2,"ADLBC","R2ALHI","Ratio values",0.735294117647],[365,"01-710-1166","Y","Xanomeline Low Dose",54,"Aspartate Aminotransferase (U/L)","AST",25,"WEEK 12",9,"Week 12",12,"ADLBC","R2ALHI","Ratio values",0.735294117647],[366,"01-710-1142","Y","Xanomeline High Dose",81,"Aspartate Aminotransferase (U/L)","AST",25,"WEEK 2",4,"Week 2",2,"ADLBC","R2ALHI","Ratio values",0.735294117647],[367,"01-710-1137","Y","Xanomeline High Dose",81,"Aspartate Aminotransferase (U/L)","AST",25,"WEEK 2",4,"Week 2",2,"ADLBC","R2ALHI","Ratio values",0.735294117647],[368,"01-709-1007","Y","Xanomeline Low Dose",54,"Aspartate Aminotransferase (U/L)","AST",25,"WEEK 4",5,"Week 4",4,"ADLBC","R2ALHI","Ratio values",0.735294117647],[369,"01-705-1280","Y","Xanomeline High Dose",81,"Aspartate Aminotransferase (U/L)","AST",25,"WEEK 8",8,"Week 8",8,"ADLBC","R2ALHI","Ratio values",0.735294117647],[370,"01-703-1335","Y","Xanomeline High Dose",81,"Aspartate Aminotransferase (U/L)","AST",25,"WEEK 4",5,"Week 4",4,"ADLBC","R2ALHI","Ratio values",0.735294117647],[371,"01-701-1383","Y","Xanomeline High Dose",81,"Aspartate Aminotransferase (U/L)","AST",25,"WEEK 8",8,"Week 8",8,"ADLBC","R2ALHI","Ratio values",0.735294117647],[372,"01-701-1153","Y","Placebo",0,"Aspartate Aminotransferase (U/L)","AST",25,"WEEK 2",4,"Week 2",2,"ADLBC","R2ALHI","Ratio values",0.735294117647],[373,"01-718-1139","Y","Placebo",0,"Aspartate Aminotransferase (U/L)","AST",25,"WEEK 8",8,"Week 8",8,"ADLBC","R2ALHI","Ratio values",0.75],[374,"01-717-1357","Y","Xanomeline High Dose",81,"Aspartate Aminotransferase (U/L)","AST",25,"WEEK 4",5,"Week 4",4,"ADLBC","R2ALHI","Ratio values",0.75],[375,"01-711-1036","Y","Placebo",0,"Aspartate Aminotransferase (U/L)","AST",25,"WEEK 2",4,"Week 2",2,"ADLBC","R2ALHI","Ratio values",0.75],[376,"01-710-1027","Y","Placebo",0,"Aspartate Aminotransferase (U/L)","AST",25,"WEEK 24",12,"Week 24",24,"ADLBC","R2ALHI","Ratio values",0.75],[377,"01-709-1339","Y","Placebo",0,"Aspartate Aminotransferase (U/L)","AST",25,"WEEK 16",10,"Week 16",16,"ADLBC","R2ALHI","Ratio values",0.75],[378,"01-709-1029","Y","Xanomeline High Dose",81,"Aspartate Aminotransferase (U/L)","AST",25,"WEEK 24",12,"Week 24",24,"ADLBC","R2ALHI","Ratio values",0.75],[379,"01-704-1266","Y","Xanomeline High Dose",81,"Aspartate Aminotransferase (U/L)","AST",25,"WEEK 4",5,"Week 4",4,"ADLBC","R2ALHI","Ratio values",0.75],[380,"01-703-1076","Y","Xanomeline High Dose",81,"Aspartate Aminotransferase (U/L)","AST",25,"WEEK 6",7,"Week 6",6,"ADLBC","R2ALHI","Ratio values",0.75],[381,"01-701-1034","Y","Xanomeline High Dose",81,"Aspartate Aminotransferase (U/L)","AST",25,"WEEK 8",8,"Week 8",8,"ADLBC","R2ALHI","Ratio values",0.764705882353],[382,"01-717-1201","Y","Placebo",0,"Aspartate Aminotransferase (U/L)","AST",25,"WEEK 2",4,"Week 2",2,"ADLBC","R2ALHI","Ratio values",0.764705882353],[383,"01-713-1209","Y","Xanomeline High Dose",81,"Aspartate Aminotransferase (U/L)","AST",25,"WEEK 4",5,"Week 4",4,"ADLBC","R2ALHI","Ratio values",0.764705882353],[384,"01-710-1078","Y","Placebo",0,"Aspartate Aminotransferase (U/L)","AST",25,"WEEK 2",4,"Week 2",2,"ADLBC","R2ALHI","Ratio values",0.764705882353],[385,"01-708-1406","Y","Xanomeline High Dose",81,"Aspartate Aminotransferase (U/L)","AST",25,"WEEK 4",5,"Week 4",4,"ADLBC","R2ALHI","Ratio values",0.764705882353],[386,"01-708-1353","Y","Xanomeline Low Dose",54,"Aspartate Aminotransferase (U/L)","AST",25,"WEEK 2",4,"Week 2",2,"ADLBC","R2ALHI","Ratio values",0.764705882353],[387,"01-708-1347","Y","Xanomeline High Dose",81,"Aspartate Aminotransferase (U/L)","AST",25,"WEEK 8",8,"Week 8",8,"ADLBC","R2ALHI","Ratio values",0.764705882353],[388,"01-708-1316","Y","Placebo",0,"Aspartate Aminotransferase (U/L)","AST",25,"WEEK 26",13,"Week 26",26,"ADLBC","R2ALHI","Ratio values",0.764705882353],[389,"01-703-1295","Y","Xanomeline High Dose",81,"Aspartate Aminotransferase (U/L)","AST",25,"WEEK 4",5,"Week 4",4,"ADLBC","R2ALHI","Ratio values",0.764705882353],[390,"01-701-1363","Y","Placebo",0,"Aspartate Aminotransferase (U/L)","AST",25,"WEEK 20",11,"Week 20",20,"ADLBC","R2ALHI","Ratio values",0.764705882353],[391,"01-701-1028","Y","Xanomeline High Dose",81,"Aspartate Aminotransferase (U/L)","AST",25,"WEEK 8",8,"Week 8",8,"ADLBC","R2ALHI","Ratio values",0.777777777778],[392,"01-717-1109","Y","Xanomeline High Dose",81,"Aspartate Aminotransferase (U/L)","AST",25,"WEEK 20",11,"Week 20",20,"ADLBC","R2ALHI","Ratio values",0.777777777778],[393,"01-716-1157","Y","Xanomeline Low Dose",54,"Aspartate Aminotransferase (U/L)","AST",25,"WEEK 2",4,"Week 2",2,"ADLBC","R2ALHI","Ratio values",0.777777777778],[394,"01-716-1063","Y","Xanomeline Low Dose",54,"Aspartate Aminotransferase (U/L)","AST",25,"WEEK 8",8,"Week 8",8,"ADLBC","R2ALHI","Ratio values",0.777777777778],[395,"01-708-1216","Y","Xanomeline High Dose",81,"Aspartate Aminotransferase (U/L)","AST",25,"WEEK 4",5,"Week 4",4,"ADLBC","R2ALHI","Ratio values",0.777777777778],[396,"01-708-1032","Y","Xanomeline Low Dose",54,"Aspartate Aminotransferase (U/L)","AST",25,"WEEK 2",4,"Week 2",2,"ADLBC","R2ALHI","Ratio values",0.777777777778],[397,"01-701-1294","Y","Xanomeline Low Dose",54,"Aspartate Aminotransferase (U/L)","AST",25,"WEEK 6",7,"Week 6",6,"ADLBC","R2ALHI","Ratio values",0.777777777778],[398,"01-716-1160","Y","Placebo",0,"Aspartate Aminotransferase (U/L)","AST",25,"WEEK 4",5,"Week 4",4,"ADLBC","R2ALHI","Ratio values",0.794117647059],[399,"01-715-1207","Y","Placebo",0,"Aspartate Aminotransferase (U/L)","AST",25,"WEEK 6",7,"Week 6",6,"ADLBC","R2ALHI","Ratio values",0.794117647059],[400,"01-711-1143","Y","Xanomeline Low Dose",54,"Aspartate Aminotransferase (U/L)","AST",25,"WEEK 4",5,"Week 4",4,"ADLBC","R2ALHI","Ratio values",0.794117647059],[401,"01-709-1326","Y","Xanomeline Low Dose",54,"Aspartate Aminotransferase (U/L)","AST",25,"WEEK 12",9,"Week 12",12,"ADLBC","R2ALHI","Ratio values",0.794117647059],[402,"01-705-1059","Y","Placebo",0,"Aspartate Aminotransferase (U/L)","AST",25,"WEEK 12",9,"Week 12",12,"ADLBC","R2ALHI","Ratio values",0.794117647059],[403,"01-704-1074","Y","Xanomeline High Dose",81,"Aspartate Aminotransferase (U/L)","AST",25,"WEEK 2",4,"Week 2",2,"ADLBC","R2ALHI","Ratio values",0.794117647059],[404,"01-717-1174","Y","Xanomeline High Dose",81,"Aspartate Aminotransferase (U/L)","AST",25,"WEEK 6",7,"Week 6",6,"ADLBC","R2ALHI","Ratio values",0.805555555556],[405,"01-710-1358","Y","Xanomeline Low Dose",54,"Aspartate Aminotransferase (U/L)","AST",25,"WEEK 2",4,"Week 2",2,"ADLBC","R2ALHI","Ratio values",0.805555555556],[406,"01-704-1065","Y","Xanomeline High Dose",81,"Aspartate Aminotransferase (U/L)","AST",25,"WEEK 8",8,"Week 8",8,"ADLBC","R2ALHI","Ratio values",0.805555555556],[407,"01-716-1418","Y","Xanomeline High Dose",81,"Aspartate Aminotransferase (U/L)","AST",25,"WEEK 12",9,"Week 12",12,"ADLBC","R2ALHI","Ratio values",0.823529411765],[408,"01-716-1024","Y","Placebo",0,"Aspartate Aminotransferase (U/L)","AST",25,"WEEK 6",7,"Week 6",6,"ADLBC","R2ALHI","Ratio values",0.823529411765],[409,"01-713-1448","Y","Xanomeline Low Dose",54,"Aspartate Aminotransferase (U/L)","AST",25,"WEEK 16",10,"Week 16",16,"ADLBC","R2ALHI","Ratio values",0.823529411765],[410,"01-713-1179","Y","Placebo",0,"Aspartate Aminotransferase (U/L)","AST",25,"WEEK 12",9,"Week 12",12,"ADLBC","R2ALHI","Ratio values",0.823529411765],[411,"01-713-1043","Y","Xanomeline Low Dose",54,"Aspartate Aminotransferase (U/L)","AST",25,"WEEK 8",8,"Week 8",8,"ADLBC","R2ALHI","Ratio values",0.823529411765],[412,"01-709-1001","Y","Placebo",0,"Aspartate Aminotransferase (U/L)","AST",25,"WEEK 12",9,"Week 12",12,"ADLBC","R2ALHI","Ratio values",0.823529411765],[413,"01-708-1171","Y","Placebo",0,"Aspartate Aminotransferase (U/L)","AST",25,"WEEK 20",11,"Week 20",20,"ADLBC","R2ALHI","Ratio values",0.823529411765],[414,"01-704-1260","Y","Placebo",0,"Aspartate Aminotransferase (U/L)","AST",25,"WEEK 8",8,"Week 8",8,"ADLBC","R2ALHI","Ratio values",0.823529411765],[415,"01-701-1023","Y","Placebo",0,"Aspartate Aminotransferase (U/L)","AST",25,"WEEK 4",5,"Week 4",4,"ADLBC","R2ALHI","Ratio values",0.833333333333],[416,"01-715-1107","Y","Xanomeline Low Dose",54,"Aspartate Aminotransferase (U/L)","AST",25,"WEEK 2",4,"Week 2",2,"ADLBC","R2ALHI","Ratio values",0.833333333333],[417,"01-714-1288","Y","Xanomeline High Dose",81,"Aspartate Aminotransferase (U/L)","AST",25,"WEEK 8",8,"Week 8",8,"ADLBC","R2ALHI","Ratio values",0.833333333333],[418,"01-713-1141","Y","Xanomeline High Dose",81,"Aspartate Aminotransferase (U/L)","AST",25,"WEEK 4",5,"Week 4",4,"ADLBC","R2ALHI","Ratio values",0.833333333333],[419,"01-709-1217","Y","Xanomeline Low Dose",54,"Aspartate Aminotransferase (U/L)","AST",25,"WEEK 2",4,"Week 2",2,"ADLBC","R2ALHI","Ratio values",0.833333333333],[420,"01-708-1253","Y","Placebo",0,"Aspartate Aminotransferase (U/L)","AST",25,"WEEK 12",9,"Week 12",12,"ADLBC","R2ALHI","Ratio values",0.833333333333],[421,"01-701-1275","Y","Xanomeline High Dose",81,"Aspartate Aminotransferase (U/L)","AST",25,"WEEK 8",8,"Week 8",8,"ADLBC","R2ALHI","Ratio values",0.833333333333],[422,"01-701-1148","Y","Xanomeline High Dose",81,"Aspartate Aminotransferase (U/L)","AST",25,"WEEK 24",12,"Week 24",24,"ADLBC","R2ALHI","Ratio values",0.833333333333],[423,"01-718-1250","Y","Xanomeline Low Dose",54,"Aspartate Aminotransferase (U/L)","AST",25,"WEEK 2",4,"Week 2",2,"ADLBC","R2ALHI","Ratio values",0.852941176471],[424,"01-706-1049","Y","Xanomeline High Dose",81,"Aspartate Aminotransferase (U/L)","AST",25,"WEEK 2",4,"Week 2",2,"ADLBC","R2ALHI","Ratio values",0.852941176471],[425,"01-705-1431","Y","Xanomeline Low Dose",54,"Aspartate Aminotransferase (U/L)","AST",25,"WEEK 2",4,"Week 2",2,"ADLBC","R2ALHI","Ratio values",0.852941176471],[426,"01-704-1008","Y","Xanomeline High Dose",81,"Aspartate Aminotransferase (U/L)","AST",25,"WEEK 6",7,"Week 6",6,"ADLBC","R2ALHI","Ratio values",0.852941176471],[427,"01-716-1189","Y","Xanomeline High Dose",81,"Aspartate Aminotransferase (U/L)","AST",25,"WEEK 6",7,"Week 6",6,"ADLBC","R2ALHI","Ratio values",0.861111111111],[428,"01-714-1195","Y","Xanomeline Low Dose",54,"Aspartate Aminotransferase (U/L)","AST",25,"WEEK 4",5,"Week 4",4,"ADLBC","R2ALHI","Ratio values",0.861111111111],[429,"01-709-1309","Y","Xanomeline High Dose",81,"Aspartate Aminotransferase (U/L)","AST",25,"WEEK 8",8,"Week 8",8,"ADLBC","R2ALHI","Ratio values",0.861111111111],[430,"01-701-1440","Y","Placebo",0,"Aspartate Aminotransferase (U/L)","AST",25,"WEEK 6",7,"Week 6",6,"ADLBC","R2ALHI","Ratio values",0.861111111111],[431,"01-718-1427","Y","Xanomeline High Dose",81,"Aspartate Aminotransferase (U/L)","AST",25,"WEEK 6",7,"Week 6",6,"ADLBC","R2ALHI","Ratio values",0.882352941176],[432,"01-716-1229","Y","Xanomeline High Dose",81,"Aspartate Aminotransferase (U/L)","AST",25,"WEEK 4",5,"Week 4",4,"ADLBC","R2ALHI","Ratio values",0.882352941176],[433,"01-715-1321","Y","Xanomeline High Dose",81,"Aspartate Aminotransferase (U/L)","AST",25,"WEEK 4",5,"Week 4",4,"ADLBC","R2ALHI","Ratio values",0.882352941176],[434,"01-710-1045","Y","Xanomeline Low Dose",54,"Aspartate Aminotransferase (U/L)","AST",25,"WEEK 4",5,"Week 4",4,"ADLBC","R2ALHI","Ratio values",0.882352941176],[435,"01-709-1099","Y","Xanomeline High Dose",81,"Aspartate Aminotransferase (U/L)","AST",25,"WEEK 24",12,"Week 24",24,"ADLBC","R2ALHI","Ratio values",0.882352941176],[436,"01-703-1210","Y","Placebo",0,"Aspartate Aminotransferase (U/L)","AST",25,"WEEK 4",5,"Week 4",4,"ADLBC","R2ALHI","Ratio values",0.882352941176],[437,"01-716-1441","Y","Placebo",0,"Aspartate Aminotransferase (U/L)","AST",25,"WEEK 16",10,"Week 16",16,"ADLBC","R2ALHI","Ratio values",0.888888888889],[438,"01-716-1167","Y","Xanomeline Low Dose",54,"Aspartate Aminotransferase (U/L)","AST",25,"WEEK 2",4,"Week 2",2,"ADLBC","R2ALHI","Ratio values",0.888888888889],[439,"01-716-1044","Y","Placebo",0,"Aspartate Aminotransferase (U/L)","AST",25,"WEEK 24",12,"Week 24",24,"ADLBC","R2ALHI","Ratio values",0.888888888889],[440,"01-704-1388","Y","Placebo",0,"Aspartate Aminotransferase (U/L)","AST",25,"WEEK 8",8,"Week 8",8,"ADLBC","R2ALHI","Ratio values",0.888888888889],[441,"01-704-1241","Y","Xanomeline High Dose",81,"Aspartate Aminotransferase (U/L)","AST",25,"WEEK 6",7,"Week 6",6,"ADLBC","R2ALHI","Ratio values",0.888888888889],[442,"01-701-1234","Y","Placebo",0,"Aspartate Aminotransferase (U/L)","AST",25,"WEEK 12",9,"Week 12",12,"ADLBC","R2ALHI","Ratio values",0.888888888889],[443,"01-718-1079","Y","Xanomeline Low Dose",54,"Aspartate Aminotransferase (U/L)","AST",25,"WEEK 2",4,"Week 2",2,"ADLBC","R2ALHI","Ratio values",0.911764705882],[444,"01-714-1035","Y","Placebo",0,"Aspartate Aminotransferase (U/L)","AST",25,"WEEK 4",5,"Week 4",4,"ADLBC","R2ALHI","Ratio values",0.911764705882],[445,"01-703-1439","Y","Xanomeline High Dose",81,"Aspartate Aminotransferase (U/L)","AST",25,"WEEK 24",12,"Week 24",24,"ADLBC","R2ALHI","Ratio values",0.911764705882],[446,"01-703-1100","Y","Placebo",0,"Aspartate Aminotransferase (U/L)","AST",25,"WEEK 2",4,"Week 2",2,"ADLBC","R2ALHI","Ratio values",0.911764705882],[447,"01-701-1429","Y","Xanomeline Low Dose",54,"Aspartate Aminotransferase (U/L)","AST",25,"WEEK 2",4,"Week 2",2,"ADLBC","R2ALHI","Ratio values",0.911764705882],[448,"01-716-1103","Y","Xanomeline Low Dose",54,"Aspartate Aminotransferase (U/L)","AST",25,"WEEK 16",10,"Week 16",16,"ADLBC","R2ALHI","Ratio values",0.916666666667],[449,"01-718-1371","Y","Xanomeline High Dose",81,"Aspartate Aminotransferase (U/L)","AST",25,"WEEK 2",4,"Week 2",2,"ADLBC","R2ALHI","Ratio values",0.941176470588],[450,"01-710-1053","Y","Xanomeline Low Dose",54,"Aspartate Aminotransferase (U/L)","AST",25,"WEEK 2",4,"Week 2",2,"ADLBC","R2ALHI","Ratio values",0.941176470588],[451,"01-704-1120","Y","Xanomeline Low Dose",54,"Aspartate Aminotransferase (U/L)","AST",25,"WEEK 6",7,"Week 6",6,"ADLBC","R2ALHI","Ratio values",0.941176470588],[452,"01-701-1341","Y","Xanomeline Low Dose",54,"Aspartate Aminotransferase (U/L)","AST",25,"WEEK 4",5,"Week 4",4,"ADLBC","R2ALHI","Ratio values",0.944444444444],[453,"01-701-1015","Y","Placebo",0,"Aspartate Aminotransferase (U/L)","AST",25,"WEEK 2",4,"Week 2",2,"ADLBC","R2ALHI","Ratio values",0.970588235294],[454,"01-703-1258","Y","Xanomeline High Dose",81,"Aspartate Aminotransferase (U/L)","AST",25,"WEEK 4",5,"Week 4",4,"ADLBC","R2ALHI","Ratio values",0.970588235294],[455,"01-701-1287","Y","Xanomeline High Dose",81,"Aspartate Aminotransferase (U/L)","AST",25,"WEEK 2",4,"Week 2",2,"ADLBC","R2ALHI","Ratio values",0.970588235294],[456,"01-704-1009","Y","Xanomeline Low Dose",54,"Aspartate Aminotransferase (U/L)","AST",25,"WEEK 2",4,"Week 2",2,"ADLBC","R2ALHI","Ratio values",0.972222222222],[457,"01-716-1373","Y","Xanomeline High Dose",81,"Aspartate Aminotransferase (U/L)","AST",25,"WEEK 2",4,"Week 2",2,"ADLBC","R2ALHI","Ratio values",1],[458,"01-713-1106","Y","Xanomeline High Dose",81,"Aspartate Aminotransferase (U/L)","AST",25,"WEEK 4",5,"Week 4",4,"ADLBC","R2ALHI","Ratio values",1],[459,"01-710-1354","Y","Xanomeline High Dose",81,"Aspartate Aminotransferase (U/L)","AST",25,"WEEK 16",10,"Week 16",16,"ADLBC","R2ALHI","Ratio values",1],[460,"01-708-1296","Y","Placebo",0,"Aspartate Aminotransferase (U/L)","AST",25,"WEEK 12",9,"Week 12",12,"ADLBC","R2ALHI","Ratio values",1],[461,"01-716-1311","Y","Xanomeline Low Dose",54,"Aspartate Aminotransferase (U/L)","AST",25,"WEEK 20",11,"Week 20",20,"ADLBC","R2ALHI","Ratio values",1.02777777778],[462,"01-710-1006","Y","Xanomeline High Dose",81,"Aspartate Aminotransferase (U/L)","AST",25,"WEEK 24",12,"Week 24",24,"ADLBC","R2ALHI","Ratio values",1.02777777778],[463,"01-704-1025","Y","Xanomeline Low Dose",54,"Aspartate Aminotransferase (U/L)","AST",25,"WEEK 4",5,"Week 4",4,"ADLBC","R2ALHI","Ratio values",1.02941176471],[464,"01-710-1060","Y","Placebo",0,"Aspartate Aminotransferase (U/L)","AST",25,"WEEK 4",5,"Week 4",4,"ADLBC","R2ALHI","Ratio values",1.05555555556],[465,"01-703-1042","Y","Placebo",0,"Aspartate Aminotransferase (U/L)","AST",25,"WEEK 26",13,"Week 26",26,"ADLBC","R2ALHI","Ratio values",1.05555555556],[466,"01-704-1127","Y","Placebo",0,"Aspartate Aminotransferase (U/L)","AST",25,"WEEK 16",10,"Week 16",16,"ADLBC","R2ALHI","Ratio values",1.05882352941],[467,"01-709-1329","Y","Xanomeline High Dose",81,"Aspartate Aminotransferase (U/L)","AST",25,"WEEK 2",4,"Week 2",2,"ADLBC","R2ALHI","Ratio values",1.08333333333],[468,"01-716-1071","Y","Xanomeline High Dose",81,"Aspartate Aminotransferase (U/L)","AST",25,"WEEK 8",8,"Week 8",8,"ADLBC","R2ALHI","Ratio values",1.08823529412],[469,"01-703-1379","Y","Xanomeline Low Dose",54,"Aspartate Aminotransferase (U/L)","AST",25,"WEEK 24",12,"Week 24",24,"ADLBC","R2ALHI","Ratio values",1.08823529412],[470,"01-704-1445","Y","Placebo",0,"Aspartate Aminotransferase (U/L)","AST",25,"WEEK 16",10,"Week 16",16,"ADLBC","R2ALHI","Ratio values",1.11111111111],[471,"01-703-1086","Y","Xanomeline Low Dose",54,"Aspartate Aminotransferase (U/L)","AST",25,"WEEK 2",4,"Week 2",2,"ADLBC","R2ALHI","Ratio values",1.11111111111],[472,"01-716-1151","Y","Xanomeline Low Dose",54,"Aspartate Aminotransferase (U/L)","AST",25,"WEEK 12",9,"Week 12",12,"ADLBC","R2ALHI","Ratio values",1.14705882353],[473,"01-710-1385","Y","Xanomeline Low Dose",54,"Aspartate Aminotransferase (U/L)","AST",25,"WEEK 16",10,"Week 16",16,"ADLBC","R2ALHI","Ratio values",1.16666666667],[474,"01-701-1239","Y","Xanomeline High Dose",81,"Aspartate Aminotransferase (U/L)","AST",25,"WEEK 4",5,"Week 4",4,"ADLBC","R2ALHI","Ratio values",1.19444444444],[475,"01-702-1082","Y","Xanomeline Low Dose",54,"Aspartate Aminotransferase (U/L)","AST",25,"WEEK 2",4,"Week 2",2,"ADLBC","R2ALHI","Ratio values",1.20588235294],[476,"01-710-1270","Y","Xanomeline Low Dose",54,"Aspartate Aminotransferase (U/L)","AST",25,"WEEK 2",4,"Week 2",2,"ADLBC","R2ALHI","Ratio values",1.26470588235],[477,"01-716-1447","Y","Xanomeline High Dose",81,"Aspartate Aminotransferase (U/L)","AST",25,"WEEK 20",11,"Week 20",20,"ADLBC","R2ALHI","Ratio values",1.32352941176],[478,"01-709-1301","Y","Placebo",0,"Aspartate Aminotransferase (U/L)","AST",25,"WEEK 8",8,"Week 8",8,"ADLBC","R2ALHI","Ratio values",1.32352941176],[479,"01-717-1446","Y","Xanomeline Low Dose",54,"Aspartate Aminotransferase (U/L)","AST",25,"WEEK 2",4,"Week 2",2,"ADLBC","R2ALHI","Ratio values",1.35294117647],[480,"01-701-1345","Y","Placebo",0,"Aspartate Aminotransferase (U/L)","AST",25,"WEEK 24",12,"Week 24",24,"ADLBC","R2ALHI","Ratio values",1.35294117647],[481,"01-707-1206","Y","Placebo",0,"Aspartate Aminotransferase (U/L)","AST",25,"WEEK 4",5,"Week 4",4,"ADLBC","R2ALHI","Ratio values",1.36111111111],[482,"01-708-1342","Y","Placebo",0,"Aspartate Aminotransferase (U/L)","AST",25,"WEEK 2",4,"Week 2",2,"ADLBC","R2ALHI","Ratio values",1.41176470588],[483,"01-703-1119","Y","Xanomeline Low Dose",54,"Aspartate Aminotransferase (U/L)","AST",25,"WEEK 12",9,"Week 12",12,"ADLBC","R2ALHI","Ratio values",1.41176470588],[484,"01-716-1364","Y","Xanomeline High Dose",81,"Aspartate Aminotransferase (U/L)","AST",25,"WEEK 12",9,"Week 12",12,"ADLBC","R2ALHI","Ratio values",1.47058823529],[485,"01-718-1150","Y","Placebo",0,"Aspartate Aminotransferase (U/L)","AST",25,"WEEK 6",7,"Week 6",6,"ADLBC","R2ALHI","Ratio values",1.70588235294],[486,"01-709-1102","Y","Xanomeline Low Dose",54,"Aspartate Aminotransferase (U/L)","AST",25,"WEEK 2",4,"Week 2",2,"ADLBC","R2ALHI","Ratio values",1.82352941176],[487,"01-705-1349","Y","Placebo",0,"Aspartate Aminotransferase (U/L)","AST",25,"WEEK 24",12,"Week 24",24,"ADLBC","R2ALHI","Ratio values",1.97058823529],[488,"01-701-1302","Y","Xanomeline High Dose",81,"Aspartate Aminotransferase (U/L)","AST",25,"WEEK 6",7,"Week 6",6,"ADLBC","R2ALHI","Ratio values",2.02777777778],[489,"01-705-1310","Y","Xanomeline High Dose",81,"Aspartate Aminotransferase (U/L)","AST",25,"WEEK 8",8,"Week 8",8,"ADLBC","R2ALHI","Ratio values",3.35294117647],[490,"01-705-1292","Y","Xanomeline Low Dose",54,"Aspartate Aminotransferase (U/L)","AST",25,"WEEK 12",9,"Week 12",12,"ADLBC","R2ALHI","Ratio values",3.67647058824],[491,"01-705-1186","Y","Placebo",0,"Aspartate Aminotransferase (U/L)","AST",25,"WEEK 4",5,"Week 4",4,"ADLBC","R2ALHI","Ratio values",3.97058823529],[492,"01-708-1286","Y","Placebo",0,"Aspartate Aminotransferase (U/L)","AST",25,"WEEK 24",12,"Week 24",24,"ADLBC","R2ALHI","Ratio values",4.94117647059]]}}}}