{"creationDateTime":"2024-02-14T11:46:28","datasetJSONVersion":"1.0.0","fileOID":"CDISCPILOT01.t14_2_01_map","clinicalData":{"studyOID":"CDISCPILOT01","metaDataVersionOID":"MDV.CDISCPILOT01","itemGroupData":{"IG.T14_2_01_MAP":{"records":2032,"name":"T14_2_01_MAP","label":"Table 14_2_01 - Demography","items":[{"OID":"ITEMGROUPDATASEQ","name":"ITEMGROUPDATASEQ","label":"Record Identifier","type":"integer"},{"OID":"IT.T14_2_01_MAP.ORDVAR","name":"ORDVAR","label":"Order Variable","type":"float","length":8,"displayFormat":"."},{"OID":"IT.T14_2_01_MAP.TRT01PN","name":"TRT01PN","label":"Planned Treatment for Period 01 (N)","type":"float","length":8,"displayFormat":"."},{"OID":"IT.T14_2_01_MAP.TRT01P","name":"TRT01P","label":"Planned Treatment for Period 01","type":"string","length":20,"displayFormat":"."},{"OID":"IT.T14_2_01_MAP.USUBJID","name":"USUBJID","label":"Unique Subject Identifier","type":"string","length":11,"displayFormat":"."},{"OID":"IT.T14_2_01_MAP.SRCDOM","name":"SRCDOM","label":"Source Data","type":"string","length":4,"displayFormat":"."},{"OID":"IT.T14_2_01_MAP.SRCVAR","name":"SRCVAR","label":"Source Variable","type":"string","length":8,"displayFormat":"."},{"OID":"IT.T14_2_01_MAP.SRCVLABL","name":"SRCVLABL","label":"Source Variable Label","type":"string","length":50,"displayFormat":"."},{"OID":"IT.T14_2_01_MAP.AVALCAT","name":"AVALCAT","label":"Analysis Value Category","type":"string","length":50,"displayFormat":"."},{"OID":"IT.T14_2_01_MAP.AVAL","name":"AVAL","label":"Age","type":"float","length":8,"displayFormat":"."},{"OID":"IT.T14_2_01_MAP.AVALU","name":"AVALU","label":"Age Units","type":"string","length":5,"displayFormat":"."},{"OID":"IT.T14_2_01_MAP.T_N","name":"T_N","label":"Table Result - n","type":"float","length":8,"displayFormat":"."},{"OID":"IT.T14_2_01_MAP.T_MEAN","name":"T_MEAN","label":"Table Result - Mean","type":"string","length":8,"displayFormat":"."},{"OID":"IT.T14_2_01_MAP.T_SD","name":"T_SD","label":"Table Result - sd","type":"string","length":8,"displayFormat":"."},{"OID":"IT.T14_2_01_MAP.T_MEDIAN","name":"T_MEDIAN","label":"Table Result - Median","type":"string","length":8,"displayFormat":"."},{"OID":"IT.T14_2_01_MAP.T_MIN","name":"T_MIN","label":"Table Result - Minimum","type":"string","length":8,"displayFormat":"."},{"OID":"IT.T14_2_01_MAP.T_MAX","name":"T_MAX","label":"Table Result - Maximum","type":"string","length":8,"displayFormat":"."}],"itemData":[[1,1,0,"Placebo","01-705-1186","ADSL","ITTFL","Intent-To-Treat Population Flag","Y",null,"",86,"","","","",""],[2,1,0,"Placebo","01-707-1206","ADSL","ITTFL","Intent-To-Treat Population Flag","Y",null,"",86,"","","","",""],[3,1,0,"Placebo","01-715-1207","ADSL","ITTFL","Intent-To-Treat Population Flag","Y",null,"",86,"","","","",""],[4,1,0,"Placebo","01-709-1259","ADSL","ITTFL","Intent-To-Treat Population Flag","Y",null,"",86,"","","","",""],[5,1,0,"Placebo","01-703-1210","ADSL","ITTFL","Intent-To-Treat Population Flag","Y",null,"",86,"","","","",""],[6,1,0,"Placebo","01-708-1378","ADSL","ITTFL","Intent-To-Treat Population Flag","Y",null,"",86,"","","","",""],[7,1,0,"Placebo","01-709-1312","ADSL","ITTFL","Intent-To-Treat Population Flag","Y",null,"",86,"","","","",""],[8,1,0,"Placebo","01-701-1392","ADSL","ITTFL","Intent-To-Treat Population Flag","Y",null,"",86,"","","","",""],[9,1,0,"Placebo","01-710-1077","ADSL","ITTFL","Intent-To-Treat Population Flag","Y",null,"",86,"","","","",""],[10,1,0,"Placebo","01-718-1355","ADSL","ITTFL","Intent-To-Treat Population Flag","Y",null,"",86,"","","","",""],[11,1,0,"Placebo","01-705-1059","ADSL","ITTFL","Intent-To-Treat Population Flag","Y",null,"",86,"","","","",""],[12,1,0,"Placebo","01-701-1440","ADSL","ITTFL","Intent-To-Treat Population Flag","Y",null,"",86,"","","","",""],[13,1,0,"Placebo","01-704-1445","ADSL","ITTFL","Intent-To-Treat Population Flag","Y",null,"",86,"","","","",""],[14,1,0,"Placebo","01-713-1256","ADSL","ITTFL","Intent-To-Treat Population Flag","Y",null,"",86,"","","","",""],[15,1,0,"Placebo","01-705-1282","ADSL","ITTFL","Intent-To-Treat Population Flag","Y",null,"",86,"","","","",""],[16,1,0,"Placebo","01-701-1234","ADSL","ITTFL","Intent-To-Treat Population Flag","Y",null,"",86,"","","","",""],[17,1,0,"Placebo","01-704-1010","ADSL","ITTFL","Intent-To-Treat Population Flag","Y",null,"",86,"","","","",""],[18,1,0,"Placebo","01-710-1027","ADSL","ITTFL","Intent-To-Treat Population Flag","Y",null,"",86,"","","","",""],[19,1,0,"Placebo","01-704-1435","ADSL","ITTFL","Intent-To-Treat Population Flag","Y",null,"",86,"","","","",""],[20,1,0,"Placebo","01-716-1024","ADSL","ITTFL","Intent-To-Treat Population Flag","Y",null,"",86,"","","","",""],[21,1,0,"Placebo","01-716-1160","ADSL","ITTFL","Intent-To-Treat Population Flag","Y",null,"",86,"","","","",""],[22,1,0,"Placebo","01-716-1441","ADSL","ITTFL","Intent-To-Treat Population Flag","Y",null,"",86,"","","","",""],[23,1,0,"Placebo","01-703-1042","ADSL","ITTFL","Intent-To-Treat Population Flag","Y",null,"",86,"","","","",""],[24,1,0,"Placebo","01-708-1342","ADSL","ITTFL","Intent-To-Treat Population Flag","Y",null,"",86,"","","","",""],[25,1,0,"Placebo","01-706-1041","ADSL","ITTFL","Intent-To-Treat Population Flag","Y",null,"",86,"","","","",""],[26,1,0,"Placebo","01-704-1164","ADSL","ITTFL","Intent-To-Treat Population Flag","Y",null,"",86,"","","","",""],[27,1,0,"Placebo","01-708-1286","ADSL","ITTFL","Intent-To-Treat Population Flag","Y",null,"",86,"","","","",""],[28,1,0,"Placebo","01-703-1299","ADSL","ITTFL","Intent-To-Treat Population Flag","Y",null,"",86,"","","","",""],[29,1,0,"Placebo","01-701-1023","ADSL","ITTFL","Intent-To-Treat Population Flag","Y",null,"",86,"","","","",""],[30,1,0,"Placebo","01-710-1264","ADSL","ITTFL","Intent-To-Treat Population Flag","Y",null,"",86,"","","","",""],[31,1,0,"Placebo","01-708-1253","ADSL","ITTFL","Intent-To-Treat Population Flag","Y",null,"",86,"","","","",""],[32,1,0,"Placebo","01-704-1260","ADSL","ITTFL","Intent-To-Treat Population Flag","Y",null,"",86,"","","","",""],[33,1,0,"Placebo","01-703-1100","ADSL","ITTFL","Intent-To-Treat Population Flag","Y",null,"",86,"","","","",""],[34,1,0,"Placebo","01-708-1087","ADSL","ITTFL","Intent-To-Treat Population Flag","Y",null,"",86,"","","","",""],[35,1,0,"Placebo","01-709-1306","ADSL","ITTFL","Intent-To-Treat Population Flag","Y",null,"",86,"","","","",""],[36,1,0,"Placebo","01-717-1344","ADSL","ITTFL","Intent-To-Treat Population Flag","Y",null,"",86,"","","","",""],[37,1,0,"Placebo","01-703-1175","ADSL","ITTFL","Intent-To-Treat Population Flag","Y",null,"",86,"","","","",""],[38,1,0,"Placebo","01-701-1153","ADSL","ITTFL","Intent-To-Treat Population Flag","Y",null,"",86,"","","","",""],[39,1,0,"Placebo","01-710-1368","ADSL","ITTFL","Intent-To-Treat Population Flag","Y",null,"",86,"","","","",""],[40,1,0,"Placebo","01-710-1314","ADSL","ITTFL","Intent-To-Treat Population Flag","Y",null,"",86,"","","","",""],[41,1,0,"Placebo","01-709-1001","ADSL","ITTFL","Intent-To-Treat Population Flag","Y",null,"",86,"","","","",""],[42,1,0,"Placebo","01-715-1397","ADSL","ITTFL","Intent-To-Treat Population Flag","Y",null,"",86,"","","","",""],[43,1,0,"Placebo","01-718-1139","ADSL","ITTFL","Intent-To-Treat Population Flag","Y",null,"",86,"","","","",""],[44,1,0,"Placebo","01-701-1387","ADSL","ITTFL","Intent-To-Treat Population Flag","Y",null,"",86,"","","","",""],[45,1,0,"Placebo","01-701-1345","ADSL","ITTFL","Intent-To-Treat Population Flag","Y",null,"",86,"","","","",""],[46,1,0,"Placebo","01-704-1388","ADSL","ITTFL","Intent-To-Treat Population Flag","Y",null,"",86,"","","","",""],[47,1,0,"Placebo","01-701-1118","ADSL","ITTFL","Intent-To-Treat Population Flag","Y",null,"",86,"","","","",""],[48,1,0,"Placebo","01-716-1177","ADSL","ITTFL","Intent-To-Treat Population Flag","Y",null,"",86,"","","","",""],[49,1,0,"Placebo","01-708-1171","ADSL","ITTFL","Intent-To-Treat Population Flag","Y",null,"",86,"","","","",""],[50,1,0,"Placebo","01-709-1088","ADSL","ITTFL","Intent-To-Treat Population Flag","Y",null,"",86,"","","","",""],[51,1,0,"Placebo","01-715-1155","ADSL","ITTFL","Intent-To-Treat Population Flag","Y",null,"",86,"","","","",""],[52,1,0,"Placebo","01-716-1308","ADSL","ITTFL","Intent-To-Treat Population Flag","Y",null,"",86,"","","","",""],[53,1,0,"Placebo","01-704-1127","ADSL","ITTFL","Intent-To-Treat Population Flag","Y",null,"",86,"","","","",""],[54,1,0,"Placebo","01-705-1018","ADSL","ITTFL","Intent-To-Treat Population Flag","Y",null,"",86,"","","","",""],[55,1,0,"Placebo","01-701-1130","ADSL","ITTFL","Intent-To-Treat Population Flag","Y",null,"",86,"","","","",""],[56,1,0,"Placebo","01-718-1172","ADSL","ITTFL","Intent-To-Treat Population Flag","Y",null,"",86,"","","","",""],[57,1,0,"Placebo","01-709-1339","ADSL","ITTFL","Intent-To-Treat Population Flag","Y",null,"",86,"","","","",""],[58,1,0,"Placebo","01-701-1203","ADSL","ITTFL","Intent-To-Treat Population Flag","Y",null,"",86,"","","","",""],[59,1,0,"Placebo","01-717-1201","ADSL","ITTFL","Intent-To-Treat Population Flag","Y",null,"",86,"","","","",""],[60,1,0,"Placebo","01-711-1036","ADSL","ITTFL","Intent-To-Treat Population Flag","Y",null,"",86,"","","","",""],[61,1,0,"Placebo","01-714-1375","ADSL","ITTFL","Intent-To-Treat Population Flag","Y",null,"",86,"","","","",""],[62,1,0,"Placebo","01-710-1271","ADSL","ITTFL","Intent-To-Treat Population Flag","Y",null,"",86,"","","","",""],[63,1,0,"Placebo","01-708-1158","ADSL","ITTFL","Intent-To-Treat Population Flag","Y",null,"",86,"","","","",""],[64,1,0,"Placebo","01-713-1179","ADSL","ITTFL","Intent-To-Treat Population Flag","Y",null,"",86,"","","","",""],[65,1,0,"Placebo","01-713-1269","ADSL","ITTFL","Intent-To-Treat Population Flag","Y",null,"",86,"","","","",""],[66,1,0,"Placebo","01-710-1060","ADSL","ITTFL","Intent-To-Treat Population Flag","Y",null,"",86,"","","","",""],[67,1,0,"Placebo","01-701-1363","ADSL","ITTFL","Intent-To-Treat Population Flag","Y",null,"",86,"","","","",""],[68,1,0,"Placebo","01-716-1108","ADSL","ITTFL","Intent-To-Treat Population Flag","Y",null,"",86,"","","","",""],[69,1,0,"Placebo","01-701-1047","ADSL","ITTFL","Intent-To-Treat Population Flag","Y",null,"",86,"","","","",""],[70,1,0,"Placebo","01-708-1296","ADSL","ITTFL","Intent-To-Treat Population Flag","Y",null,"",86,"","","","",""],[71,1,0,"Placebo","01-710-1315","ADSL","ITTFL","Intent-To-Treat Population Flag","Y",null,"",86,"","","","",""],[72,1,0,"Placebo","01-710-1078","ADSL","ITTFL","Intent-To-Treat Population Flag","Y",null,"",86,"","","","",""],[73,1,0,"Placebo","01-716-1026","ADSL","ITTFL","Intent-To-Treat Population Flag","Y",null,"",86,"","","","",""],[74,1,0,"Placebo","01-705-1349","ADSL","ITTFL","Intent-To-Treat Population Flag","Y",null,"",86,"","","","",""],[75,1,0,"Placebo","01-714-1035","ADSL","ITTFL","Intent-To-Treat Population Flag","Y",null,"",86,"","","","",""],[76,1,0,"Placebo","01-704-1233","ADSL","ITTFL","Intent-To-Treat Population Flag","Y",null,"",86,"","","","",""],[77,1,0,"Placebo","01-701-1015","ADSL","ITTFL","Intent-To-Treat Population Flag","Y",null,"",86,"","","","",""],[78,1,0,"Placebo","01-703-1096","ADSL","ITTFL","Intent-To-Treat Population Flag","Y",null,"",86,"","","","",""],[79,1,0,"Placebo","01-710-1083","ADSL","ITTFL","Intent-To-Treat Population Flag","Y",null,"",86,"","","","",""],[80,1,0,"Placebo","01-701-1415","ADSL","ITTFL","Intent-To-Treat Population Flag","Y",null,"",86,"","","","",""],[81,1,0,"Placebo","01-709-1301","ADSL","ITTFL","Intent-To-Treat Population Flag","Y",null,"",86,"","","","",""],[82,1,0,"Placebo","01-716-1044","ADSL","ITTFL","Intent-To-Treat Population Flag","Y",null,"",86,"","","","",""],[83,1,0,"Placebo","01-718-1150","ADSL","ITTFL","Intent-To-Treat Population Flag","Y",null,"",86,"","","","",""],[84,1,0,"Placebo","01-710-1183","ADSL","ITTFL","Intent-To-Treat Population Flag","Y",null,"",86,"","","","",""],[85,1,0,"Placebo","01-708-1316","ADSL","ITTFL","Intent-To-Treat Population Flag","Y",null,"",86,"","","","",""],[86,1,0,"Placebo","01-704-1351","ADSL","ITTFL","Intent-To-Treat Population Flag","Y",null,"",86,"","","","",""],[87,1,54,"Xanomeline Low Dose","01-710-1385","ADSL","ITTFL","Intent-To-Treat Population Flag","Y",null,"",84,"","","","",""],[88,1,54,"Xanomeline Low Dose","01-711-1143","ADSL","ITTFL","Intent-To-Treat Population Flag","Y",null,"",84,"","","","",""],[89,1,54,"Xanomeline Low Dose","01-709-1081","ADSL","ITTFL","Intent-To-Treat Population Flag","Y",null,"",84,"","","","",""],[90,1,54,"Xanomeline Low Dose","01-718-1079","ADSL","ITTFL","Intent-To-Treat Population Flag","Y",null,"",84,"","","","",""],[91,1,54,"Xanomeline Low Dose","01-716-1311","ADSL","ITTFL","Intent-To-Treat Population Flag","Y",null,"",84,"","","","",""],[92,1,54,"Xanomeline Low Dose","01-709-1102","ADSL","ITTFL","Intent-To-Treat Population Flag","Y",null,"",84,"","","","",""],[93,1,54,"Xanomeline Low Dose","01-710-1270","ADSL","ITTFL","Intent-To-Treat Population Flag","Y",null,"",84,"","","","",""],[94,1,54,"Xanomeline Low Dose","01-704-1120","ADSL","ITTFL","Intent-To-Treat Population Flag","Y",null,"",84,"","","","",""],[95,1,54,"Xanomeline Low Dose","01-701-1317","ADSL","ITTFL","Intent-To-Treat Population Flag","Y",null,"",84,"","","","",""],[96,1,54,"Xanomeline Low Dose","01-703-1279","ADSL","ITTFL","Intent-To-Treat Population Flag","Y",null,"",84,"","","","",""],[97,1,54,"Xanomeline Low Dose","01-716-1094","ADSL","ITTFL","Intent-To-Treat Population Flag","Y",null,"",84,"","","","",""],[98,1,54,"Xanomeline Low Dose","01-716-1167","ADSL","ITTFL","Intent-To-Treat Population Flag","Y",null,"",84,"","","","",""],[99,1,54,"Xanomeline Low Dose","01-716-1151","ADSL","ITTFL","Intent-To-Treat Population Flag","Y",null,"",84,"","","","",""],[100,1,54,"Xanomeline Low Dose","01-708-1428","ADSL","ITTFL","Intent-To-Treat Population Flag","Y",null,"",84,"","","","",""],[101,1,54,"Xanomeline Low Dose","01-716-1063","ADSL","ITTFL","Intent-To-Treat Population Flag","Y",null,"",84,"","","","",""],[102,1,54,"Xanomeline Low Dose","01-705-1292","ADSL","ITTFL","Intent-To-Treat Population Flag","Y",null,"",84,"","","","",""],[103,1,54,"Xanomeline Low Dose","01-704-1323","ADSL","ITTFL","Intent-To-Treat Population Flag","Y",null,"",84,"","","","",""],[104,1,54,"Xanomeline Low Dose","01-701-1097","ADSL","ITTFL","Intent-To-Treat Population Flag","Y",null,"",84,"","","","",""],[105,1,54,"Xanomeline Low Dose","01-708-1032","ADSL","ITTFL","Intent-To-Treat Population Flag","Y",null,"",84,"","","","",""],[106,1,54,"Xanomeline Low Dose","01-710-1053","ADSL","ITTFL","Intent-To-Treat Population Flag","Y",null,"",84,"","","","",""],[107,1,54,"Xanomeline Low Dose","01-701-1111","ADSL","ITTFL","Intent-To-Treat Population Flag","Y",null,"",84,"","","","",""],[108,1,54,"Xanomeline Low Dose","01-704-1218","ADSL","ITTFL","Intent-To-Treat Population Flag","Y",null,"",84,"","","","",""],[109,1,54,"Xanomeline Low Dose","01-703-1086","ADSL","ITTFL","Intent-To-Treat Population Flag","Y",null,"",84,"","","","",""],[110,1,54,"Xanomeline Low Dose","01-709-1285","ADSL","ITTFL","Intent-To-Treat Population Flag","Y",null,"",84,"","","","",""],[111,1,54,"Xanomeline Low Dose","01-713-1073","ADSL","ITTFL","Intent-To-Treat Population Flag","Y",null,"",84,"","","","",""],[112,1,54,"Xanomeline Low Dose","01-701-1192","ADSL","ITTFL","Intent-To-Treat Population Flag","Y",null,"",84,"","","","",""],[113,1,54,"Xanomeline Low Dose","01-704-1135","ADSL","ITTFL","Intent-To-Treat Population Flag","Y",null,"",84,"","","","",""],[114,1,54,"Xanomeline Low Dose","01-718-1250","ADSL","ITTFL","Intent-To-Treat Population Flag","Y",null,"",84,"","","","",""],[115,1,54,"Xanomeline Low Dose","01-714-1195","ADSL","ITTFL","Intent-To-Treat Population Flag","Y",null,"",84,"","","","",""],[116,1,54,"Xanomeline Low Dose","01-717-1004","ADSL","ITTFL","Intent-To-Treat Population Flag","Y",null,"",84,"","","","",""],[117,1,54,"Xanomeline Low Dose","01-701-1341","ADSL","ITTFL","Intent-To-Treat Population Flag","Y",null,"",84,"","","","",""],[118,1,54,"Xanomeline Low Dose","01-706-1384","ADSL","ITTFL","Intent-To-Treat Population Flag","Y",null,"",84,"","","","",""],[119,1,54,"Xanomeline Low Dose","01-701-1442","ADSL","ITTFL","Intent-To-Treat Population Flag","Y",null,"",84,"","","","",""],[120,1,54,"Xanomeline Low Dose","01-708-1348","ADSL","ITTFL","Intent-To-Treat Population Flag","Y",null,"",84,"","","","",""],[121,1,54,"Xanomeline Low Dose","01-718-1170","ADSL","ITTFL","Intent-To-Treat Population Flag","Y",null,"",84,"","","","",""],[122,1,54,"Xanomeline Low Dose","01-710-1002","ADSL","ITTFL","Intent-To-Treat Population Flag","Y",null,"",84,"","","","",""],[123,1,54,"Xanomeline Low Dose","01-710-1235","ADSL","ITTFL","Intent-To-Treat Population Flag","Y",null,"",84,"","","","",""],[124,1,54,"Xanomeline Low Dose","01-718-1254","ADSL","ITTFL","Intent-To-Treat Population Flag","Y",null,"",84,"","","","",""],[125,1,54,"Xanomeline Low Dose","01-710-1045","ADSL","ITTFL","Intent-To-Treat Population Flag","Y",null,"",84,"","","","",""],[126,1,54,"Xanomeline Low Dose","01-705-1199","ADSL","ITTFL","Intent-To-Treat Population Flag","Y",null,"",84,"","","","",""],[127,1,54,"Xanomeline Low Dose","01-708-1019","ADSL","ITTFL","Intent-To-Treat Population Flag","Y",null,"",84,"","","","",""],[128,1,54,"Xanomeline Low Dose","01-716-1298","ADSL","ITTFL","Intent-To-Treat Population Flag","Y",null,"",84,"","","","",""],[129,1,54,"Xanomeline Low Dose","01-707-1037","ADSL","ITTFL","Intent-To-Treat Population Flag","Y",null,"",84,"","","","",""],[130,1,54,"Xanomeline Low Dose","01-708-1084","ADSL","ITTFL","Intent-To-Treat Population Flag","Y",null,"",84,"","","","",""],[131,1,54,"Xanomeline Low Dose","01-704-1114","ADSL","ITTFL","Intent-To-Treat Population Flag","Y",null,"",84,"","","","",""],[132,1,54,"Xanomeline Low Dose","01-716-1157","ADSL","ITTFL","Intent-To-Treat Population Flag","Y",null,"",84,"","","","",""],[133,1,54,"Xanomeline Low Dose","01-704-1025","ADSL","ITTFL","Intent-To-Treat Population Flag","Y",null,"",84,"","","","",""],[134,1,54,"Xanomeline Low Dose","01-705-1031","ADSL","ITTFL","Intent-To-Treat Population Flag","Y",null,"",84,"","","","",""],[135,1,54,"Xanomeline Low Dose","01-715-1085","ADSL","ITTFL","Intent-To-Treat Population Flag","Y",null,"",84,"","","","",""],[136,1,54,"Xanomeline Low Dose","01-702-1082","ADSL","ITTFL","Intent-To-Treat Population Flag","Y",null,"",84,"","","","",""],[137,1,54,"Xanomeline Low Dose","01-701-1429","ADSL","ITTFL","Intent-To-Treat Population Flag","Y",null,"",84,"","","","",""],[138,1,54,"Xanomeline Low Dose","01-710-1358","ADSL","ITTFL","Intent-To-Treat Population Flag","Y",null,"",84,"","","","",""],[139,1,54,"Xanomeline Low Dose","01-708-1353","ADSL","ITTFL","Intent-To-Treat Population Flag","Y",null,"",84,"","","","",""],[140,1,54,"Xanomeline Low Dose","01-703-1197","ADSL","ITTFL","Intent-To-Treat Population Flag","Y",null,"",84,"","","","",""],[141,1,54,"Xanomeline Low Dose","01-705-1431","ADSL","ITTFL","Intent-To-Treat Population Flag","Y",null,"",84,"","","","",""],[142,1,54,"Xanomeline Low Dose","01-701-1115","ADSL","ITTFL","Intent-To-Treat Population Flag","Y",null,"",84,"","","","",""],[143,1,54,"Xanomeline Low Dose","01-708-1297","ADSL","ITTFL","Intent-To-Treat Population Flag","Y",null,"",84,"","","","",""],[144,1,54,"Xanomeline Low Dose","01-701-1294","ADSL","ITTFL","Intent-To-Treat Population Flag","Y",null,"",84,"","","","",""],[145,1,54,"Xanomeline Low Dose","01-708-1272","ADSL","ITTFL","Intent-To-Treat Population Flag","Y",null,"",84,"","","","",""],[146,1,54,"Xanomeline Low Dose","01-709-1020","ADSL","ITTFL","Intent-To-Treat Population Flag","Y",null,"",84,"","","","",""],[147,1,54,"Xanomeline Low Dose","01-718-1066","ADSL","ITTFL","Intent-To-Treat Population Flag","Y",null,"",84,"","","","",""],[148,1,54,"Xanomeline Low Dose","01-701-1211","ADSL","ITTFL","Intent-To-Treat Population Flag","Y",null,"",84,"","","","",""],[149,1,54,"Xanomeline Low Dose","01-710-1300","ADSL","ITTFL","Intent-To-Treat Population Flag","Y",null,"",84,"","","","",""],[150,1,54,"Xanomeline Low Dose","01-715-1107","ADSL","ITTFL","Intent-To-Treat Population Flag","Y",null,"",84,"","","","",""],[151,1,54,"Xanomeline Low Dose","01-713-1448","ADSL","ITTFL","Intent-To-Treat Population Flag","Y",null,"",84,"","","","",""],[152,1,54,"Xanomeline Low Dose","01-703-1119","ADSL","ITTFL","Intent-To-Treat Population Flag","Y",null,"",84,"","","","",""],[153,1,54,"Xanomeline Low Dose","01-717-1446","ADSL","ITTFL","Intent-To-Treat Population Flag","Y",null,"",84,"","","","",""],[154,1,54,"Xanomeline Low Dose","01-703-1379","ADSL","ITTFL","Intent-To-Treat Population Flag","Y",null,"",84,"","","","",""],[155,1,54,"Xanomeline Low Dose","01-701-1324","ADSL","ITTFL","Intent-To-Treat Population Flag","Y",null,"",84,"","","","",""],[156,1,54,"Xanomeline Low Dose","01-714-1068","ADSL","ITTFL","Intent-To-Treat Population Flag","Y",null,"",84,"","","","",""],[157,1,54,"Xanomeline Low Dose","01-715-1405","ADSL","ITTFL","Intent-To-Treat Population Flag","Y",null,"",84,"","","","",""],[158,1,54,"Xanomeline Low Dose","01-709-1007","ADSL","ITTFL","Intent-To-Treat Population Flag","Y",null,"",84,"","","","",""],[159,1,54,"Xanomeline Low Dose","01-709-1326","ADSL","ITTFL","Intent-To-Treat Population Flag","Y",null,"",84,"","","","",""],[160,1,54,"Xanomeline Low Dose","01-705-1393","ADSL","ITTFL","Intent-To-Treat Population Flag","Y",null,"",84,"","","","",""],[161,1,54,"Xanomeline Low Dose","01-710-1166","ADSL","ITTFL","Intent-To-Treat Population Flag","Y",null,"",84,"","","","",""],[162,1,54,"Xanomeline Low Dose","01-710-1154","ADSL","ITTFL","Intent-To-Treat Population Flag","Y",null,"",84,"","","","",""],[163,1,54,"Xanomeline Low Dose","01-704-1009","ADSL","ITTFL","Intent-To-Treat Population Flag","Y",null,"",84,"","","","",""],[164,1,54,"Xanomeline Low Dose","01-701-1033","ADSL","ITTFL","Intent-To-Treat Population Flag","Y",null,"",84,"","","","",""],[165,1,54,"Xanomeline Low Dose","01-716-1103","ADSL","ITTFL","Intent-To-Treat Population Flag","Y",null,"",84,"","","","",""],[166,1,54,"Xanomeline Low Dose","01-704-1325","ADSL","ITTFL","Intent-To-Treat Population Flag","Y",null,"",84,"","","","",""],[167,1,54,"Xanomeline Low Dose","01-713-1043","ADSL","ITTFL","Intent-To-Treat Population Flag","Y",null,"",84,"","","","",""],[168,1,54,"Xanomeline Low Dose","01-703-1182","ADSL","ITTFL","Intent-To-Treat Population Flag","Y",null,"",84,"","","","",""],[169,1,54,"Xanomeline Low Dose","01-701-1188","ADSL","ITTFL","Intent-To-Treat Population Flag","Y",null,"",84,"","","","",""],[170,1,54,"Xanomeline Low Dose","01-709-1217","ADSL","ITTFL","Intent-To-Treat Population Flag","Y",null,"",84,"","","","",""],[171,1,81,"Xanomeline High Dose","01-710-1408","ADSL","ITTFL","Intent-To-Treat Population Flag","Y",null,"",84,"","","","",""],[172,1,81,"Xanomeline High Dose","01-703-1403","ADSL","ITTFL","Intent-To-Treat Population Flag","Y",null,"",84,"","","","",""],[173,1,81,"Xanomeline High Dose","01-718-1101","ADSL","ITTFL","Intent-To-Treat Population Flag","Y",null,"",84,"","","","",""],[174,1,81,"Xanomeline High Dose","01-717-1109","ADSL","ITTFL","Intent-To-Treat Population Flag","Y",null,"",84,"","","","",""],[175,1,81,"Xanomeline High Dose","01-704-1074","ADSL","ITTFL","Intent-To-Treat Population Flag","Y",null,"",84,"","","","",""],[176,1,81,"Xanomeline High Dose","01-708-1347","ADSL","ITTFL","Intent-To-Treat Population Flag","Y",null,"",84,"","","","",""],[177,1,81,"Xanomeline High Dose","01-701-1302","ADSL","ITTFL","Intent-To-Treat Population Flag","Y",null,"",84,"","","","",""],[178,1,81,"Xanomeline High Dose","01-704-1017","ADSL","ITTFL","Intent-To-Treat Population Flag","Y",null,"",84,"","","","",""],[179,1,81,"Xanomeline High Dose","01-716-1071","ADSL","ITTFL","Intent-To-Treat Population Flag","Y",null,"",84,"","","","",""],[180,1,81,"Xanomeline High Dose","01-701-1146","ADSL","ITTFL","Intent-To-Treat Population Flag","Y",null,"",84,"","","","",""],[181,1,81,"Xanomeline High Dose","01-716-1364","ADSL","ITTFL","Intent-To-Treat Population Flag","Y",null,"",84,"","","","",""],[182,1,81,"Xanomeline High Dose","01-710-1142","ADSL","ITTFL","Intent-To-Treat Population Flag","Y",null,"",84,"","","","",""],[183,1,81,"Xanomeline High Dose","01-704-1266","ADSL","ITTFL","Intent-To-Treat Population Flag","Y",null,"",84,"","","","",""],[184,1,81,"Xanomeline High Dose","01-716-1030","ADSL","ITTFL","Intent-To-Treat Population Flag","Y",null,"",84,"","","","",""],[185,1,81,"Xanomeline High Dose","01-716-1373","ADSL","ITTFL","Intent-To-Treat Population Flag","Y",null,"",84,"","","","",""],[186,1,81,"Xanomeline High Dose","01-709-1309","ADSL","ITTFL","Intent-To-Treat Population Flag","Y",null,"",84,"","","","",""],[187,1,81,"Xanomeline High Dose","01-710-1249","ADSL","ITTFL","Intent-To-Treat Population Flag","Y",null,"",84,"","","","",""],[188,1,81,"Xanomeline High Dose","01-708-1336","ADSL","ITTFL","Intent-To-Treat Population Flag","Y",null,"",84,"","","","",""],[189,1,81,"Xanomeline High Dose","01-706-1049","ADSL","ITTFL","Intent-To-Treat Population Flag","Y",null,"",84,"","","","",""],[190,1,81,"Xanomeline High Dose","01-710-1070","ADSL","ITTFL","Intent-To-Treat Population Flag","Y",null,"",84,"","","","",""],[191,1,81,"Xanomeline High Dose","01-713-1106","ADSL","ITTFL","Intent-To-Treat Population Flag","Y",null,"",84,"","","","",""],[192,1,81,"Xanomeline High Dose","01-701-1383","ADSL","ITTFL","Intent-To-Treat Population Flag","Y",null,"",84,"","","","",""],[193,1,81,"Xanomeline High Dose","01-703-1335","ADSL","ITTFL","Intent-To-Treat Population Flag","Y",null,"",84,"","","","",""],[194,1,81,"Xanomeline High Dose","01-716-1418","ADSL","ITTFL","Intent-To-Treat Population Flag","Y",null,"",84,"","","","",""],[195,1,81,"Xanomeline High Dose","01-715-1321","ADSL","ITTFL","Intent-To-Treat Population Flag","Y",null,"",84,"","","","",""],[196,1,81,"Xanomeline High Dose","01-714-1425","ADSL","ITTFL","Intent-To-Treat Population Flag","Y",null,"",84,"","","","",""],[197,1,81,"Xanomeline High Dose","01-717-1357","ADSL","ITTFL","Intent-To-Treat Population Flag","Y",null,"",84,"","","","",""],[198,1,81,"Xanomeline High Dose","01-716-1447","ADSL","ITTFL","Intent-To-Treat Population Flag","Y",null,"",84,"","","","",""],[199,1,81,"Xanomeline High Dose","01-701-1275","ADSL","ITTFL","Intent-To-Treat Population Flag","Y",null,"",84,"","","","",""],[200,1,81,"Xanomeline High Dose","01-705-1382","ADSL","ITTFL","Intent-To-Treat Population Flag","Y",null,"",84,"","","","",""],[201,1,81,"Xanomeline High Dose","01-716-1229","ADSL","ITTFL","Intent-To-Treat Population Flag","Y",null,"",84,"","","","",""],[202,1,81,"Xanomeline High Dose","01-708-1236","ADSL","ITTFL","Intent-To-Treat Population Flag","Y",null,"",84,"","","","",""],[203,1,81,"Xanomeline High Dose","01-701-1180","ADSL","ITTFL","Intent-To-Treat Population Flag","Y",null,"",84,"","","","",""],[204,1,81,"Xanomeline High Dose","01-704-1093","ADSL","ITTFL","Intent-To-Treat Population Flag","Y",null,"",84,"","","","",""],[205,1,81,"Xanomeline High Dose","01-718-1371","ADSL","ITTFL","Intent-To-Treat Population Flag","Y",null,"",84,"","","","",""],[206,1,81,"Xanomeline High Dose","01-705-1377","ADSL","ITTFL","Intent-To-Treat Population Flag","Y",null,"",84,"","","","",""],[207,1,81,"Xanomeline High Dose","01-716-1189","ADSL","ITTFL","Intent-To-Treat Population Flag","Y",null,"",84,"","","","",""],[208,1,81,"Xanomeline High Dose","01-705-1310","ADSL","ITTFL","Intent-To-Treat Population Flag","Y",null,"",84,"","","","",""],[209,1,81,"Xanomeline High Dose","01-701-1360","ADSL","ITTFL","Intent-To-Treat Population Flag","Y",null,"",84,"","","","",""],[210,1,81,"Xanomeline High Dose","01-703-1258","ADSL","ITTFL","Intent-To-Treat Population Flag","Y",null,"",84,"","","","",""],[211,1,81,"Xanomeline High Dose","01-703-1439","ADSL","ITTFL","Intent-To-Treat Population Flag","Y",null,"",84,"","","","",""],[212,1,81,"Xanomeline High Dose","01-711-1433","ADSL","ITTFL","Intent-To-Treat Population Flag","Y",null,"",84,"","","","",""],[213,1,81,"Xanomeline High Dose","01-710-1354","ADSL","ITTFL","Intent-To-Treat Population Flag","Y",null,"",84,"","","","",""],[214,1,81,"Xanomeline High Dose","01-718-1427","ADSL","ITTFL","Intent-To-Treat Population Flag","Y",null,"",84,"","","","",""],[215,1,81,"Xanomeline High Dose","01-708-1372","ADSL","ITTFL","Intent-To-Treat Population Flag","Y",null,"",84,"","","","",""],[216,1,81,"Xanomeline High Dose","01-710-1006","ADSL","ITTFL","Intent-To-Treat Population Flag","Y",null,"",84,"","","","",""],[217,1,81,"Xanomeline High Dose","01-709-1168","ADSL","ITTFL","Intent-To-Treat Population Flag","Y",null,"",84,"","","","",""],[218,1,81,"Xanomeline High Dose","01-715-1319","ADSL","ITTFL","Intent-To-Treat Population Flag","Y",null,"",84,"","","","",""],[219,1,81,"Xanomeline High Dose","01-701-1133","ADSL","ITTFL","Intent-To-Treat Population Flag","Y",null,"",84,"","","","",""],[220,1,81,"Xanomeline High Dose","01-714-1288","ADSL","ITTFL","Intent-To-Treat Population Flag","Y",null,"",84,"","","","",""],[221,1,81,"Xanomeline High Dose","01-704-1332","ADSL","ITTFL","Intent-To-Treat Population Flag","Y",null,"",84,"","","","",""],[222,1,81,"Xanomeline High Dose","01-711-1012","ADSL","ITTFL","Intent-To-Treat Population Flag","Y",null,"",84,"","","","",""],[223,1,81,"Xanomeline High Dose","01-701-1181","ADSL","ITTFL","Intent-To-Treat Population Flag","Y",null,"",84,"","","","",""],[224,1,81,"Xanomeline High Dose","01-709-1424","ADSL","ITTFL","Intent-To-Treat Population Flag","Y",null,"",84,"","","","",""],[225,1,81,"Xanomeline High Dose","01-710-1137","ADSL","ITTFL","Intent-To-Treat Population Flag","Y",null,"",84,"","","","",""],[226,1,81,"Xanomeline High Dose","01-704-1008","ADSL","ITTFL","Intent-To-Treat Population Flag","Y",null,"",84,"","","","",""],[227,1,81,"Xanomeline High Dose","01-709-1099","ADSL","ITTFL","Intent-To-Treat Population Flag","Y",null,"",84,"","","","",""],[228,1,81,"Xanomeline High Dose","01-708-1406","ADSL","ITTFL","Intent-To-Treat Population Flag","Y",null,"",84,"","","","",""],[229,1,81,"Xanomeline High Dose","01-717-1174","ADSL","ITTFL","Intent-To-Treat Population Flag","Y",null,"",84,"","","","",""],[230,1,81,"Xanomeline High Dose","01-708-1213","ADSL","ITTFL","Intent-To-Treat Population Flag","Y",null,"",84,"","","","",""],[231,1,81,"Xanomeline High Dose","01-718-1328","ADSL","ITTFL","Intent-To-Treat Population Flag","Y",null,"",84,"","","","",""],[232,1,81,"Xanomeline High Dose","01-708-1178","ADSL","ITTFL","Intent-To-Treat Population Flag","Y",null,"",84,"","","","",""],[233,1,81,"Xanomeline High Dose","01-704-1065","ADSL","ITTFL","Intent-To-Treat Population Flag","Y",null,"",84,"","","","",""],[234,1,81,"Xanomeline High Dose","01-713-1209","ADSL","ITTFL","Intent-To-Treat Population Flag","Y",null,"",84,"","","","",""],[235,1,81,"Xanomeline High Dose","01-705-1280","ADSL","ITTFL","Intent-To-Treat Population Flag","Y",null,"",84,"","","","",""],[236,1,81,"Xanomeline High Dose","01-701-1034","ADSL","ITTFL","Intent-To-Treat Population Flag","Y",null,"",84,"","","","",""],[237,1,81,"Xanomeline High Dose","01-709-1029","ADSL","ITTFL","Intent-To-Treat Population Flag","Y",null,"",84,"","","","",""],[238,1,81,"Xanomeline High Dose","01-710-1187","ADSL","ITTFL","Intent-To-Treat Population Flag","Y",null,"",84,"","","","",""],[239,1,81,"Xanomeline High Dose","01-701-1239","ADSL","ITTFL","Intent-To-Treat Population Flag","Y",null,"",84,"","","","",""],[240,1,81,"Xanomeline High Dose","01-701-1287","ADSL","ITTFL","Intent-To-Treat Population Flag","Y",null,"",84,"","","","",""],[241,1,81,"Xanomeline High Dose","01-701-1028","ADSL","ITTFL","Intent-To-Treat Population Flag","Y",null,"",84,"","","","",""],[242,1,81,"Xanomeline High Dose","01-701-1148","ADSL","ITTFL","Intent-To-Treat Population Flag","Y",null,"",84,"","","","",""],[243,1,81,"Xanomeline High Dose","01-709-1238","ADSL","ITTFL","Intent-To-Treat Population Flag","Y",null,"",84,"","","","",""],[244,1,81,"Xanomeline High Dose","01-704-1241","ADSL","ITTFL","Intent-To-Treat Population Flag","Y",null,"",84,"","","","",""],[245,1,81,"Xanomeline High Dose","01-710-1021","ADSL","ITTFL","Intent-To-Treat Population Flag","Y",null,"",84,"","","","",""],[246,1,81,"Xanomeline High Dose","01-710-1278","ADSL","ITTFL","Intent-To-Treat Population Flag","Y",null,"",84,"","","","",""],[247,1,81,"Xanomeline High Dose","01-703-1295","ADSL","ITTFL","Intent-To-Treat Population Flag","Y",null,"",84,"","","","",""],[248,1,81,"Xanomeline High Dose","01-705-1303","ADSL","ITTFL","Intent-To-Treat Population Flag","Y",null,"",84,"","","","",""],[249,1,81,"Xanomeline High Dose","01-703-1076","ADSL","ITTFL","Intent-To-Treat Population Flag","Y",null,"",84,"","","","",""],[250,1,81,"Xanomeline High Dose","01-709-1329","ADSL","ITTFL","Intent-To-Treat Population Flag","Y",null,"",84,"","","","",""],[251,1,81,"Xanomeline High Dose","01-713-1141","ADSL","ITTFL","Intent-To-Treat Population Flag","Y",null,"",84,"","","","",""],[252,1,81,"Xanomeline High Dose","01-708-1216","ADSL","ITTFL","Intent-To-Treat Population Flag","Y",null,"",84,"","","","",""],[253,1,81,"Xanomeline High Dose","01-705-1281","ADSL","ITTFL","Intent-To-Treat Population Flag","Y",null,"",84,"","","","",""],[254,1,81,"Xanomeline High Dose","01-701-1444","ADSL","ITTFL","Intent-To-Treat Population Flag","Y",null,"",84,"","","","",""],[255,2,0,"Placebo","01-701-1118","ADSL","AGE","Age","",52,"YEARS",null,"75.21","8.59","76.00","52.00","89.00"],[256,2,0,"Placebo","01-708-1296","ADSL","AGE","Age","",57,"YEARS",null,"75.21","8.59","76.00","52.00","89.00"],[257,2,0,"Placebo","01-715-1155","ADSL","AGE","Age","",59,"YEARS",null,"75.21","8.59","76.00","52.00","89.00"],[258,2,0,"Placebo","01-708-1342","ADSL","AGE","Age","",59,"YEARS",null,"75.21","8.59","76.00","52.00","89.00"],[259,2,0,"Placebo","01-709-1306","ADSL","AGE","Age","",60,"YEARS",null,"75.21","8.59","76.00","52.00","89.00"],[260,2,0,"Placebo","01-708-1253","ADSL","AGE","Age","",61,"YEARS",null,"75.21","8.59","76.00","52.00","89.00"],[261,2,0,"Placebo","01-709-1301","ADSL","AGE","Age","",62,"YEARS",null,"75.21","8.59","76.00","52.00","89.00"],[262,2,0,"Placebo","01-701-1015","ADSL","AGE","Age","",63,"YEARS",null,"75.21","8.59","76.00","52.00","89.00"],[263,2,0,"Placebo","01-701-1345","ADSL","AGE","Age","",63,"YEARS",null,"75.21","8.59","76.00","52.00","89.00"],[264,2,0,"Placebo","01-703-1042","ADSL","AGE","Age","",64,"YEARS",null,"75.21","8.59","76.00","52.00","89.00"],[265,2,0,"Placebo","01-717-1344","ADSL","AGE","Age","",64,"YEARS",null,"75.21","8.59","76.00","52.00","89.00"],[266,2,0,"Placebo","01-706-1041","ADSL","AGE","Age","",64,"YEARS",null,"75.21","8.59","76.00","52.00","89.00"],[267,2,0,"Placebo","01-713-1179","ADSL","AGE","Age","",64,"YEARS",null,"75.21","8.59","76.00","52.00","89.00"],[268,2,0,"Placebo","01-701-1023","ADSL","AGE","Age","",64,"YEARS",null,"75.21","8.59","76.00","52.00","89.00"],[269,2,0,"Placebo","01-707-1206","ADSL","AGE","Age","",65,"YEARS",null,"75.21","8.59","76.00","52.00","89.00"],[270,2,0,"Placebo","01-705-1059","ADSL","AGE","Age","",66,"YEARS",null,"75.21","8.59","76.00","52.00","89.00"],[271,2,0,"Placebo","01-708-1378","ADSL","AGE","Age","",67,"YEARS",null,"75.21","8.59","76.00","52.00","89.00"],[272,2,0,"Placebo","01-704-1164","ADSL","AGE","Age","",67,"YEARS",null,"75.21","8.59","76.00","52.00","89.00"],[273,2,0,"Placebo","01-709-1312","ADSL","AGE","Age","",68,"YEARS",null,"75.21","8.59","76.00","52.00","89.00"],[274,2,0,"Placebo","01-701-1234","ADSL","AGE","Age","",69,"YEARS",null,"75.21","8.59","76.00","52.00","89.00"],[275,2,0,"Placebo","01-709-1088","ADSL","AGE","Age","",69,"YEARS",null,"75.21","8.59","76.00","52.00","89.00"],[276,2,0,"Placebo","01-705-1018","ADSL","AGE","Age","",69,"YEARS",null,"75.21","8.59","76.00","52.00","89.00"],[277,2,0,"Placebo","01-701-1440","ADSL","AGE","Age","",70,"YEARS",null,"75.21","8.59","76.00","52.00","89.00"],[278,2,0,"Placebo","01-704-1351","ADSL","AGE","Age","",70,"YEARS",null,"75.21","8.59","76.00","52.00","89.00"],[279,2,0,"Placebo","01-705-1282","ADSL","AGE","Age","",70,"YEARS",null,"75.21","8.59","76.00","52.00","89.00"],[280,2,0,"Placebo","01-711-1036","ADSL","AGE","Age","",70,"YEARS",null,"75.21","8.59","76.00","52.00","89.00"],[281,2,0,"Placebo","01-704-1260","ADSL","AGE","Age","",71,"YEARS",null,"75.21","8.59","76.00","52.00","89.00"],[282,2,0,"Placebo","01-713-1256","ADSL","AGE","Age","",71,"YEARS",null,"75.21","8.59","76.00","52.00","89.00"],[283,2,0,"Placebo","01-703-1210","ADSL","AGE","Age","",72,"YEARS",null,"75.21","8.59","76.00","52.00","89.00"],[284,2,0,"Placebo","01-716-1177","ADSL","AGE","Age","",72,"YEARS",null,"75.21","8.59","76.00","52.00","89.00"],[285,2,0,"Placebo","01-713-1269","ADSL","AGE","Age","",73,"YEARS",null,"75.21","8.59","76.00","52.00","89.00"],[286,2,0,"Placebo","01-718-1150","ADSL","AGE","Age","",73,"YEARS",null,"75.21","8.59","76.00","52.00","89.00"],[287,2,0,"Placebo","01-716-1026","ADSL","AGE","Age","",73,"YEARS",null,"75.21","8.59","76.00","52.00","89.00"],[288,2,0,"Placebo","01-718-1172","ADSL","AGE","Age","",74,"YEARS",null,"75.21","8.59","76.00","52.00","89.00"],[289,2,0,"Placebo","01-708-1316","ADSL","AGE","Age","",74,"YEARS",null,"75.21","8.59","76.00","52.00","89.00"],[290,2,0,"Placebo","01-704-1435","ADSL","AGE","Age","",74,"YEARS",null,"75.21","8.59","76.00","52.00","89.00"],[291,2,0,"Placebo","01-716-1044","ADSL","AGE","Age","",74,"YEARS",null,"75.21","8.59","76.00","52.00","89.00"],[292,2,0,"Placebo","01-708-1087","ADSL","AGE","Age","",74,"YEARS",null,"75.21","8.59","76.00","52.00","89.00"],[293,2,0,"Placebo","01-703-1175","ADSL","AGE","Age","",75,"YEARS",null,"75.21","8.59","76.00","52.00","89.00"],[294,2,0,"Placebo","01-704-1445","ADSL","AGE","Age","",75,"YEARS",null,"75.21","8.59","76.00","52.00","89.00"],[295,2,0,"Placebo","01-709-1001","ADSL","AGE","Age","",76,"YEARS",null,"75.21","8.59","76.00","52.00","89.00"],[296,2,0,"Placebo","01-710-1077","ADSL","AGE","Age","",76,"YEARS",null,"75.21","8.59","76.00","52.00","89.00"],[297,2,0,"Placebo","01-715-1397","ADSL","AGE","Age","",76,"YEARS",null,"75.21","8.59","76.00","52.00","89.00"],[298,2,0,"Placebo","01-716-1308","ADSL","AGE","Age","",76,"YEARS",null,"75.21","8.59","76.00","52.00","89.00"],[299,2,0,"Placebo","01-708-1171","ADSL","AGE","Age","",77,"YEARS",null,"75.21","8.59","76.00","52.00","89.00"],[300,2,0,"Placebo","01-718-1139","ADSL","AGE","Age","",77,"YEARS",null,"75.21","8.59","76.00","52.00","89.00"],[301,2,0,"Placebo","01-701-1392","ADSL","AGE","Age","",78,"YEARS",null,"75.21","8.59","76.00","52.00","89.00"],[302,2,0,"Placebo","01-715-1207","ADSL","AGE","Age","",78,"YEARS",null,"75.21","8.59","76.00","52.00","89.00"],[303,2,0,"Placebo","01-714-1375","ADSL","AGE","Age","",78,"YEARS",null,"75.21","8.59","76.00","52.00","89.00"],[304,2,0,"Placebo","01-710-1314","ADSL","AGE","Age","",78,"YEARS",null,"75.21","8.59","76.00","52.00","89.00"],[305,2,0,"Placebo","01-710-1264","ADSL","AGE","Age","",78,"YEARS",null,"75.21","8.59","76.00","52.00","89.00"],[306,2,0,"Placebo","01-701-1153","ADSL","AGE","Age","",79,"YEARS",null,"75.21","8.59","76.00","52.00","89.00"],[307,2,0,"Placebo","01-718-1355","ADSL","AGE","Age","",79,"YEARS",null,"75.21","8.59","76.00","52.00","89.00"],[308,2,0,"Placebo","01-710-1183","ADSL","AGE","Age","",80,"YEARS",null,"75.21","8.59","76.00","52.00","89.00"],[309,2,0,"Placebo","01-708-1286","ADSL","AGE","Age","",80,"YEARS",null,"75.21","8.59","76.00","52.00","89.00"],[310,2,0,"Placebo","01-704-1010","ADSL","AGE","Age","",80,"YEARS",null,"75.21","8.59","76.00","52.00","89.00"],[311,2,0,"Placebo","01-710-1078","ADSL","AGE","Age","",81,"YEARS",null,"75.21","8.59","76.00","52.00","89.00"],[312,2,0,"Placebo","01-708-1158","ADSL","AGE","Age","",81,"YEARS",null,"75.21","8.59","76.00","52.00","89.00"],[313,2,0,"Placebo","01-701-1203","ADSL","AGE","Age","",81,"YEARS",null,"75.21","8.59","76.00","52.00","89.00"],[314,2,0,"Placebo","01-709-1339","ADSL","AGE","Age","",81,"YEARS",null,"75.21","8.59","76.00","52.00","89.00"],[315,2,0,"Placebo","01-703-1096","ADSL","AGE","Age","",81,"YEARS",null,"75.21","8.59","76.00","52.00","89.00"],[316,2,0,"Placebo","01-703-1299","ADSL","AGE","Age","",81,"YEARS",null,"75.21","8.59","76.00","52.00","89.00"],[317,2,0,"Placebo","01-701-1363","ADSL","AGE","Age","",81,"YEARS",null,"75.21","8.59","76.00","52.00","89.00"],[318,2,0,"Placebo","01-704-1388","ADSL","AGE","Age","",81,"YEARS",null,"75.21","8.59","76.00","52.00","89.00"],[319,2,0,"Placebo","01-710-1060","ADSL","AGE","Age","",82,"YEARS",null,"75.21","8.59","76.00","52.00","89.00"],[320,2,0,"Placebo","01-709-1259","ADSL","AGE","Age","",82,"YEARS",null,"75.21","8.59","76.00","52.00","89.00"],[321,2,0,"Placebo","01-710-1027","ADSL","AGE","Age","",83,"YEARS",null,"75.21","8.59","76.00","52.00","89.00"],[322,2,0,"Placebo","01-710-1315","ADSL","AGE","Age","",83,"YEARS",null,"75.21","8.59","76.00","52.00","89.00"],[323,2,0,"Placebo","01-716-1160","ADSL","AGE","Age","",83,"YEARS",null,"75.21","8.59","76.00","52.00","89.00"],[324,2,0,"Placebo","01-701-1130","ADSL","AGE","Age","",84,"YEARS",null,"75.21","8.59","76.00","52.00","89.00"],[325,2,0,"Placebo","01-704-1127","ADSL","AGE","Age","",84,"YEARS",null,"75.21","8.59","76.00","52.00","89.00"],[326,2,0,"Placebo","01-705-1186","ADSL","AGE","Age","",84,"YEARS",null,"75.21","8.59","76.00","52.00","89.00"],[327,2,0,"Placebo","01-703-1100","ADSL","AGE","Age","",84,"YEARS",null,"75.21","8.59","76.00","52.00","89.00"],[328,2,0,"Placebo","01-717-1201","ADSL","AGE","Age","",85,"YEARS",null,"75.21","8.59","76.00","52.00","89.00"],[329,2,0,"Placebo","01-701-1047","ADSL","AGE","Age","",85,"YEARS",null,"75.21","8.59","76.00","52.00","89.00"],[330,2,0,"Placebo","01-701-1415","ADSL","AGE","Age","",85,"YEARS",null,"75.21","8.59","76.00","52.00","89.00"],[331,2,0,"Placebo","01-716-1441","ADSL","AGE","Age","",85,"YEARS",null,"75.21","8.59","76.00","52.00","89.00"],[332,2,0,"Placebo","01-716-1108","ADSL","AGE","Age","",86,"YEARS",null,"75.21","8.59","76.00","52.00","89.00"],[333,2,0,"Placebo","01-710-1271","ADSL","AGE","Age","",86,"YEARS",null,"75.21","8.59","76.00","52.00","89.00"],[334,2,0,"Placebo","01-705-1349","ADSL","AGE","Age","",86,"YEARS",null,"75.21","8.59","76.00","52.00","89.00"],[335,2,0,"Placebo","01-716-1024","ADSL","AGE","Age","",87,"YEARS",null,"75.21","8.59","76.00","52.00","89.00"],[336,2,0,"Placebo","01-701-1387","ADSL","AGE","Age","",87,"YEARS",null,"75.21","8.59","76.00","52.00","89.00"],[337,2,0,"Placebo","01-704-1233","ADSL","AGE","Age","",87,"YEARS",null,"75.21","8.59","76.00","52.00","89.00"],[338,2,0,"Placebo","01-710-1368","ADSL","AGE","Age","",88,"YEARS",null,"75.21","8.59","76.00","52.00","89.00"],[339,2,0,"Placebo","01-714-1035","ADSL","AGE","Age","",88,"YEARS",null,"75.21","8.59","76.00","52.00","89.00"],[340,2,0,"Placebo","01-710-1083","ADSL","AGE","Age","",89,"YEARS",null,"75.21","8.59","76.00","52.00","89.00"],[341,2,54,"Xanomeline Low Dose","01-701-1341","ADSL","AGE","Age","",51,"YEARS",null,"75.67","8.29","77.50","51.00","88.00"],[342,2,54,"Xanomeline Low Dose","01-709-1007","ADSL","AGE","Age","",54,"YEARS",null,"75.67","8.29","77.50","51.00","88.00"],[343,2,54,"Xanomeline Low Dose","01-710-1235","ADSL","AGE","Age","",56,"YEARS",null,"75.67","8.29","77.50","51.00","88.00"],[344,2,54,"Xanomeline Low Dose","01-705-1031","ADSL","AGE","Age","",56,"YEARS",null,"75.67","8.29","77.50","51.00","88.00"],[345,2,54,"Xanomeline Low Dose","01-701-1442","ADSL","AGE","Age","",57,"YEARS",null,"75.67","8.29","77.50","51.00","88.00"],[346,2,54,"Xanomeline Low Dose","01-705-1292","ADSL","AGE","Age","",60,"YEARS",null,"75.67","8.29","77.50","51.00","88.00"],[347,2,54,"Xanomeline Low Dose","01-708-1297","ADSL","AGE","Age","",61,"YEARS",null,"75.67","8.29","77.50","51.00","88.00"],[348,2,54,"Xanomeline Low Dose","01-708-1032","ADSL","AGE","Age","",62,"YEARS",null,"75.67","8.29","77.50","51.00","88.00"],[349,2,54,"Xanomeline Low Dose","01-715-1107","ADSL","AGE","Age","",65,"YEARS",null,"75.67","8.29","77.50","51.00","88.00"],[350,2,54,"Xanomeline Low Dose","01-718-1079","ADSL","AGE","Age","",67,"YEARS",null,"75.67","8.29","77.50","51.00","88.00"],[351,2,54,"Xanomeline Low Dose","01-701-1294","ADSL","AGE","Age","",67,"YEARS",null,"75.67","8.29","77.50","51.00","88.00"],[352,2,54,"Xanomeline Low Dose","01-708-1019","ADSL","AGE","Age","",68,"YEARS",null,"75.67","8.29","77.50","51.00","88.00"],[353,2,54,"Xanomeline Low Dose","01-704-1323","ADSL","AGE","Age","",68,"YEARS",null,"75.67","8.29","77.50","51.00","88.00"],[354,2,54,"Xanomeline Low Dose","01-705-1431","ADSL","AGE","Age","",68,"YEARS",null,"75.67","8.29","77.50","51.00","88.00"],[355,2,54,"Xanomeline Low Dose","01-701-1097","ADSL","AGE","Age","",68,"YEARS",null,"75.67","8.29","77.50","51.00","88.00"],[356,2,54,"Xanomeline Low Dose","01-701-1317","ADSL","AGE","Age","",68,"YEARS",null,"75.67","8.29","77.50","51.00","88.00"],[357,2,54,"Xanomeline Low Dose","01-716-1167","ADSL","AGE","Age","",68,"YEARS",null,"75.67","8.29","77.50","51.00","88.00"],[358,2,54,"Xanomeline Low Dose","01-715-1405","ADSL","AGE","Age","",69,"YEARS",null,"75.67","8.29","77.50","51.00","88.00"],[359,2,54,"Xanomeline Low Dose","01-713-1448","ADSL","AGE","Age","",71,"YEARS",null,"75.67","8.29","77.50","51.00","88.00"],[360,2,54,"Xanomeline Low Dose","01-701-1188","ADSL","AGE","Age","",71,"YEARS",null,"75.67","8.29","77.50","51.00","88.00"],[361,2,54,"Xanomeline Low Dose","01-703-1086","ADSL","AGE","Age","",71,"YEARS",null,"75.67","8.29","77.50","51.00","88.00"],[362,2,54,"Xanomeline Low Dose","01-709-1102","ADSL","AGE","Age","",71,"YEARS",null,"75.67","8.29","77.50","51.00","88.00"],[363,2,54,"Xanomeline Low Dose","01-704-1120","ADSL","AGE","Age","",71,"YEARS",null,"75.67","8.29","77.50","51.00","88.00"],[364,2,54,"Xanomeline Low Dose","01-703-1279","ADSL","AGE","Age","",72,"YEARS",null,"75.67","8.29","77.50","51.00","88.00"],[365,2,54,"Xanomeline Low Dose","01-709-1020","ADSL","AGE","Age","",72,"YEARS",null,"75.67","8.29","77.50","51.00","88.00"],[366,2,54,"Xanomeline Low Dose","01-707-1037","ADSL","AGE","Age","",72,"YEARS",null,"75.67","8.29","77.50","51.00","88.00"],[367,2,54,"Xanomeline Low Dose","01-708-1084","ADSL","AGE","Age","",73,"YEARS",null,"75.67","8.29","77.50","51.00","88.00"],[368,2,54,"Xanomeline Low Dose","01-713-1073","ADSL","AGE","Age","",74,"YEARS",null,"75.67","8.29","77.50","51.00","88.00"],[369,2,54,"Xanomeline Low Dose","01-706-1384","ADSL","AGE","Age","",74,"YEARS",null,"75.67","8.29","77.50","51.00","88.00"],[370,2,54,"Xanomeline Low Dose","01-701-1033","ADSL","AGE","Age","",74,"YEARS",null,"75.67","8.29","77.50","51.00","88.00"],[371,2,54,"Xanomeline Low Dose","01-704-1135","ADSL","AGE","Age","",74,"YEARS",null,"75.67","8.29","77.50","51.00","88.00"],[372,2,54,"Xanomeline Low Dose","01-709-1326","ADSL","AGE","Age","",75,"YEARS",null,"75.67","8.29","77.50","51.00","88.00"],[373,2,54,"Xanomeline Low Dose","01-714-1195","ADSL","AGE","Age","",75,"YEARS",null,"75.67","8.29","77.50","51.00","88.00"],[374,2,54,"Xanomeline Low Dose","01-717-1446","ADSL","AGE","Age","",75,"YEARS",null,"75.67","8.29","77.50","51.00","88.00"],[375,2,54,"Xanomeline Low Dose","01-703-1197","ADSL","AGE","Age","",76,"YEARS",null,"75.67","8.29","77.50","51.00","88.00"],[376,2,54,"Xanomeline Low Dose","01-701-1211","ADSL","AGE","Age","",76,"YEARS",null,"75.67","8.29","77.50","51.00","88.00"],[377,2,54,"Xanomeline Low Dose","01-711-1143","ADSL","AGE","Age","",76,"YEARS",null,"75.67","8.29","77.50","51.00","88.00"],[378,2,54,"Xanomeline Low Dose","01-716-1298","ADSL","AGE","Age","",76,"YEARS",null,"75.67","8.29","77.50","51.00","88.00"],[379,2,54,"Xanomeline Low Dose","01-715-1085","ADSL","AGE","Age","",77,"YEARS",null,"75.67","8.29","77.50","51.00","88.00"],[380,2,54,"Xanomeline Low Dose","01-704-1114","ADSL","AGE","Age","",77,"YEARS",null,"75.67","8.29","77.50","51.00","88.00"],[381,2,54,"Xanomeline Low Dose","01-709-1217","ADSL","AGE","Age","",77,"YEARS",null,"75.67","8.29","77.50","51.00","88.00"],[382,2,54,"Xanomeline Low Dose","01-710-1385","ADSL","AGE","Age","",77,"YEARS",null,"75.67","8.29","77.50","51.00","88.00"],[383,2,54,"Xanomeline Low Dose","01-713-1043","ADSL","AGE","Age","",78,"YEARS",null,"75.67","8.29","77.50","51.00","88.00"],[384,2,54,"Xanomeline Low Dose","01-710-1300","ADSL","AGE","Age","",78,"YEARS",null,"75.67","8.29","77.50","51.00","88.00"],[385,2,54,"Xanomeline Low Dose","01-716-1311","ADSL","AGE","Age","",78,"YEARS",null,"75.67","8.29","77.50","51.00","88.00"],[386,2,54,"Xanomeline Low Dose","01-718-1254","ADSL","AGE","Age","",78,"YEARS",null,"75.67","8.29","77.50","51.00","88.00"],[387,2,54,"Xanomeline Low Dose","01-708-1348","ADSL","AGE","Age","",79,"YEARS",null,"75.67","8.29","77.50","51.00","88.00"],[388,2,54,"Xanomeline Low Dose","01-714-1068","ADSL","AGE","Age","",79,"YEARS",null,"75.67","8.29","77.50","51.00","88.00"],[389,2,54,"Xanomeline Low Dose","01-701-1324","ADSL","AGE","Age","",79,"YEARS",null,"75.67","8.29","77.50","51.00","88.00"],[390,2,54,"Xanomeline Low Dose","01-718-1066","ADSL","AGE","Age","",79,"YEARS",null,"75.67","8.29","77.50","51.00","88.00"],[391,2,54,"Xanomeline Low Dose","01-716-1103","ADSL","AGE","Age","",79,"YEARS",null,"75.67","8.29","77.50","51.00","88.00"],[392,2,54,"Xanomeline Low Dose","01-716-1063","ADSL","AGE","Age","",80,"YEARS",null,"75.67","8.29","77.50","51.00","88.00"],[393,2,54,"Xanomeline Low Dose","01-701-1192","ADSL","AGE","Age","",80,"YEARS",null,"75.67","8.29","77.50","51.00","88.00"],[394,2,54,"Xanomeline Low Dose","01-718-1170","ADSL","AGE","Age","",80,"YEARS",null,"75.67","8.29","77.50","51.00","88.00"],[395,2,54,"Xanomeline Low Dose","01-717-1004","ADSL","AGE","Age","",80,"YEARS",null,"75.67","8.29","77.50","51.00","88.00"],[396,2,54,"Xanomeline Low Dose","01-704-1025","ADSL","AGE","Age","",81,"YEARS",null,"75.67","8.29","77.50","51.00","88.00"],[397,2,54,"Xanomeline Low Dose","01-710-1166","ADSL","AGE","Age","",81,"YEARS",null,"75.67","8.29","77.50","51.00","88.00"],[398,2,54,"Xanomeline Low Dose","01-703-1379","ADSL","AGE","Age","",81,"YEARS",null,"75.67","8.29","77.50","51.00","88.00"],[399,2,54,"Xanomeline Low Dose","01-704-1325","ADSL","AGE","Age","",81,"YEARS",null,"75.67","8.29","77.50","51.00","88.00"],[400,2,54,"Xanomeline Low Dose","01-704-1218","ADSL","AGE","Age","",81,"YEARS",null,"75.67","8.29","77.50","51.00","88.00"],[401,2,54,"Xanomeline Low Dose","01-703-1119","ADSL","AGE","Age","",81,"YEARS",null,"75.67","8.29","77.50","51.00","88.00"],[402,2,54,"Xanomeline Low Dose","01-701-1111","ADSL","AGE","Age","",81,"YEARS",null,"75.67","8.29","77.50","51.00","88.00"],[403,2,54,"Xanomeline Low Dose","01-718-1250","ADSL","AGE","Age","",82,"YEARS",null,"75.67","8.29","77.50","51.00","88.00"],[404,2,54,"Xanomeline Low Dose","01-716-1094","ADSL","AGE","Age","",82,"YEARS",null,"75.67","8.29","77.50","51.00","88.00"],[405,2,54,"Xanomeline Low Dose","01-710-1358","ADSL","AGE","Age","",82,"YEARS",null,"75.67","8.29","77.50","51.00","88.00"],[406,2,54,"Xanomeline Low Dose","01-708-1272","ADSL","AGE","Age","",82,"YEARS",null,"75.67","8.29","77.50","51.00","88.00"],[407,2,54,"Xanomeline Low Dose","01-710-1270","ADSL","AGE","Age","",83,"YEARS",null,"75.67","8.29","77.50","51.00","88.00"],[408,2,54,"Xanomeline Low Dose","01-716-1151","ADSL","AGE","Age","",83,"YEARS",null,"75.67","8.29","77.50","51.00","88.00"],[409,2,54,"Xanomeline Low Dose","01-710-1045","ADSL","AGE","Age","",83,"YEARS",null,"75.67","8.29","77.50","51.00","88.00"],[410,2,54,"Xanomeline Low Dose","01-704-1009","ADSL","AGE","Age","",83,"YEARS",null,"75.67","8.29","77.50","51.00","88.00"],[411,2,54,"Xanomeline Low Dose","01-710-1154","ADSL","AGE","Age","",84,"YEARS",null,"75.67","8.29","77.50","51.00","88.00"],[412,2,54,"Xanomeline Low Dose","01-703-1182","ADSL","AGE","Age","",84,"YEARS",null,"75.67","8.29","77.50","51.00","88.00"],[413,2,54,"Xanomeline Low Dose","01-708-1428","ADSL","AGE","Age","",84,"YEARS",null,"75.67","8.29","77.50","51.00","88.00"],[414,2,54,"Xanomeline Low Dose","01-705-1393","ADSL","AGE","Age","",84,"YEARS",null,"75.67","8.29","77.50","51.00","88.00"],[415,2,54,"Xanomeline Low Dose","01-701-1429","ADSL","AGE","Age","",84,"YEARS",null,"75.67","8.29","77.50","51.00","88.00"],[416,2,54,"Xanomeline Low Dose","01-702-1082","ADSL","AGE","Age","",84,"YEARS",null,"75.67","8.29","77.50","51.00","88.00"],[417,2,54,"Xanomeline Low Dose","01-701-1115","ADSL","AGE","Age","",84,"YEARS",null,"75.67","8.29","77.50","51.00","88.00"],[418,2,54,"Xanomeline Low Dose","01-710-1053","ADSL","AGE","Age","",84,"YEARS",null,"75.67","8.29","77.50","51.00","88.00"],[419,2,54,"Xanomeline Low Dose","01-716-1157","ADSL","AGE","Age","",85,"YEARS",null,"75.67","8.29","77.50","51.00","88.00"],[420,2,54,"Xanomeline Low Dose","01-709-1081","ADSL","AGE","Age","",86,"YEARS",null,"75.67","8.29","77.50","51.00","88.00"],[421,2,54,"Xanomeline Low Dose","01-705-1199","ADSL","AGE","Age","",87,"YEARS",null,"75.67","8.29","77.50","51.00","88.00"],[422,2,54,"Xanomeline Low Dose","01-708-1353","ADSL","AGE","Age","",87,"YEARS",null,"75.67","8.29","77.50","51.00","88.00"],[423,2,54,"Xanomeline Low Dose","01-709-1285","ADSL","AGE","Age","",87,"YEARS",null,"75.67","8.29","77.50","51.00","88.00"],[424,2,54,"Xanomeline Low Dose","01-710-1002","ADSL","AGE","Age","",88,"YEARS",null,"75.67","8.29","77.50","51.00","88.00"],[425,2,81,"Xanomeline High Dose","01-705-1280","ADSL","AGE","Age","",56,"YEARS",null,"74.38","7.89","76.00","56.00","88.00"],[426,2,81,"Xanomeline High Dose","01-701-1287","ADSL","AGE","Age","",56,"YEARS",null,"74.38","7.89","76.00","56.00","88.00"],[427,2,81,"Xanomeline High Dose","01-701-1239","ADSL","AGE","Age","",56,"YEARS",null,"74.38","7.89","76.00","56.00","88.00"],[428,2,81,"Xanomeline High Dose","01-701-1180","ADSL","AGE","Age","",56,"YEARS",null,"74.38","7.89","76.00","56.00","88.00"],[429,2,81,"Xanomeline High Dose","01-701-1148","ADSL","AGE","Age","",57,"YEARS",null,"74.38","7.89","76.00","56.00","88.00"],[430,2,81,"Xanomeline High Dose","01-706-1049","ADSL","AGE","Age","",60,"YEARS",null,"74.38","7.89","76.00","56.00","88.00"],[431,2,81,"Xanomeline High Dose","01-708-1347","ADSL","AGE","Age","",61,"YEARS",null,"74.38","7.89","76.00","56.00","88.00"],[432,2,81,"Xanomeline High Dose","01-701-1302","ADSL","AGE","Age","",61,"YEARS",null,"74.38","7.89","76.00","56.00","88.00"],[433,2,81,"Xanomeline High Dose","01-701-1275","ADSL","AGE","Age","",61,"YEARS",null,"74.38","7.89","76.00","56.00","88.00"],[434,2,81,"Xanomeline High Dose","01-701-1444","ADSL","AGE","Age","",63,"YEARS",null,"74.38","7.89","76.00","56.00","88.00"],[435,2,81,"Xanomeline High Dose","01-705-1377","ADSL","AGE","Age","",63,"YEARS",null,"74.38","7.89","76.00","56.00","88.00"],[436,2,81,"Xanomeline High Dose","01-715-1319","ADSL","AGE","Age","",65,"YEARS",null,"74.38","7.89","76.00","56.00","88.00"],[437,2,81,"Xanomeline High Dose","01-709-1309","ADSL","AGE","Age","",65,"YEARS",null,"74.38","7.89","76.00","56.00","88.00"],[438,2,81,"Xanomeline High Dose","01-703-1403","ADSL","AGE","Age","",67,"YEARS",null,"74.38","7.89","76.00","56.00","88.00"],[439,2,81,"Xanomeline High Dose","01-701-1360","ADSL","AGE","Age","",67,"YEARS",null,"74.38","7.89","76.00","56.00","88.00"],[440,2,81,"Xanomeline High Dose","01-703-1335","ADSL","AGE","Age","",67,"YEARS",null,"74.38","7.89","76.00","56.00","88.00"],[441,2,81,"Xanomeline High Dose","01-711-1012","ADSL","AGE","Age","",67,"YEARS",null,"74.38","7.89","76.00","56.00","88.00"],[442,2,81,"Xanomeline High Dose","01-703-1076","ADSL","AGE","Age","",69,"YEARS",null,"74.38","7.89","76.00","56.00","88.00"],[443,2,81,"Xanomeline High Dose","01-718-1371","ADSL","AGE","Age","",69,"YEARS",null,"74.38","7.89","76.00","56.00","88.00"],[444,2,81,"Xanomeline High Dose","01-709-1238","ADSL","AGE","Age","",69,"YEARS",null,"74.38","7.89","76.00","56.00","88.00"],[445,2,81,"Xanomeline High Dose","01-709-1329","ADSL","AGE","Age","",70,"YEARS",null,"74.38","7.89","76.00","56.00","88.00"],[446,2,81,"Xanomeline High Dose","01-708-1406","ADSL","AGE","Age","",71,"YEARS",null,"74.38","7.89","76.00","56.00","88.00"],[447,2,81,"Xanomeline High Dose","01-701-1028","ADSL","AGE","Age","",71,"YEARS",null,"74.38","7.89","76.00","56.00","88.00"],[448,2,81,"Xanomeline High Dose","01-709-1168","ADSL","AGE","Age","",72,"YEARS",null,"74.38","7.89","76.00","56.00","88.00"],[449,2,81,"Xanomeline High Dose","01-701-1383","ADSL","AGE","Age","",72,"YEARS",null,"74.38","7.89","76.00","56.00","88.00"],[450,2,81,"Xanomeline High Dose","01-716-1447","ADSL","AGE","Age","",72,"YEARS",null,"74.38","7.89","76.00","56.00","88.00"],[451,2,81,"Xanomeline High Dose","01-705-1303","ADSL","AGE","Age","",72,"YEARS",null,"74.38","7.89","76.00","56.00","88.00"],[452,2,81,"Xanomeline High Dose","01-716-1229","ADSL","AGE","Age","",73,"YEARS",null,"74.38","7.89","76.00","56.00","88.00"],[453,2,81,"Xanomeline High Dose","01-710-1354","ADSL","AGE","Age","",73,"YEARS",null,"74.38","7.89","76.00","56.00","88.00"],[454,2,81,"Xanomeline High Dose","01-717-1174","ADSL","AGE","Age","",73,"YEARS",null,"74.38","7.89","76.00","56.00","88.00"],[455,2,81,"Xanomeline High Dose","01-705-1281","ADSL","AGE","Age","",73,"YEARS",null,"74.38","7.89","76.00","56.00","88.00"],[456,2,81,"Xanomeline High Dose","01-708-1336","ADSL","AGE","Age","",73,"YEARS",null,"74.38","7.89","76.00","56.00","88.00"],[457,2,81,"Xanomeline High Dose","01-718-1427","ADSL","AGE","Age","",74,"YEARS",null,"74.38","7.89","76.00","56.00","88.00"],[458,2,81,"Xanomeline High Dose","01-716-1373","ADSL","AGE","Age","",74,"YEARS",null,"74.38","7.89","76.00","56.00","88.00"],[459,2,81,"Xanomeline High Dose","01-713-1106","ADSL","AGE","Age","",74,"YEARS",null,"74.38","7.89","76.00","56.00","88.00"],[460,2,81,"Xanomeline High Dose","01-705-1310","ADSL","AGE","Age","",74,"YEARS",null,"74.38","7.89","76.00","56.00","88.00"],[461,2,81,"Xanomeline High Dose","01-701-1146","ADSL","AGE","Age","",75,"YEARS",null,"74.38","7.89","76.00","56.00","88.00"],[462,2,81,"Xanomeline High Dose","01-715-1321","ADSL","AGE","Age","",75,"YEARS",null,"74.38","7.89","76.00","56.00","88.00"],[463,2,81,"Xanomeline High Dose","01-704-1065","ADSL","AGE","Age","",75,"YEARS",null,"74.38","7.89","76.00","56.00","88.00"],[464,2,81,"Xanomeline High Dose","01-704-1008","ADSL","AGE","Age","",76,"YEARS",null,"74.38","7.89","76.00","56.00","88.00"],[465,2,81,"Xanomeline High Dose","01-710-1142","ADSL","AGE","Age","",76,"YEARS",null,"74.38","7.89","76.00","56.00","88.00"],[466,2,81,"Xanomeline High Dose","01-703-1439","ADSL","AGE","Age","",76,"YEARS",null,"74.38","7.89","76.00","56.00","88.00"],[467,2,81,"Xanomeline High Dose","01-708-1213","ADSL","AGE","Age","",76,"YEARS",null,"74.38","7.89","76.00","56.00","88.00"],[468,2,81,"Xanomeline High Dose","01-714-1288","ADSL","AGE","Age","",77,"YEARS",null,"74.38","7.89","76.00","56.00","88.00"],[469,2,81,"Xanomeline High Dose","01-717-1357","ADSL","AGE","Age","",77,"YEARS",null,"74.38","7.89","76.00","56.00","88.00"],[470,2,81,"Xanomeline High Dose","01-708-1178","ADSL","AGE","Age","",77,"YEARS",null,"74.38","7.89","76.00","56.00","88.00"],[471,2,81,"Xanomeline High Dose","01-713-1209","ADSL","AGE","Age","",77,"YEARS",null,"74.38","7.89","76.00","56.00","88.00"],[472,2,81,"Xanomeline High Dose","01-701-1034","ADSL","AGE","Age","",77,"YEARS",null,"74.38","7.89","76.00","56.00","88.00"],[473,2,81,"Xanomeline High Dose","01-709-1424","ADSL","AGE","Age","",77,"YEARS",null,"74.38","7.89","76.00","56.00","88.00"],[474,2,81,"Xanomeline High Dose","01-710-1006","ADSL","AGE","Age","",77,"YEARS",null,"74.38","7.89","76.00","56.00","88.00"],[475,2,81,"Xanomeline High Dose","01-704-1017","ADSL","AGE","Age","",77,"YEARS",null,"74.38","7.89","76.00","56.00","88.00"],[476,2,81,"Xanomeline High Dose","01-710-1187","ADSL","AGE","Age","",78,"YEARS",null,"74.38","7.89","76.00","56.00","88.00"],[477,2,81,"Xanomeline High Dose","01-703-1258","ADSL","AGE","Age","",78,"YEARS",null,"74.38","7.89","76.00","56.00","88.00"],[478,2,81,"Xanomeline High Dose","01-716-1071","ADSL","AGE","Age","",78,"YEARS",null,"74.38","7.89","76.00","56.00","88.00"],[479,2,81,"Xanomeline High Dose","01-708-1216","ADSL","AGE","Age","",78,"YEARS",null,"74.38","7.89","76.00","56.00","88.00"],[480,2,81,"Xanomeline High Dose","01-701-1181","ADSL","AGE","Age","",79,"YEARS",null,"74.38","7.89","76.00","56.00","88.00"],[481,2,81,"Xanomeline High Dose","01-710-1249","ADSL","AGE","Age","",79,"YEARS",null,"74.38","7.89","76.00","56.00","88.00"],[482,2,81,"Xanomeline High Dose","01-710-1021","ADSL","AGE","Age","",79,"YEARS",null,"74.38","7.89","76.00","56.00","88.00"],[483,2,81,"Xanomeline High Dose","01-710-1137","ADSL","AGE","Age","",79,"YEARS",null,"74.38","7.89","76.00","56.00","88.00"],[484,2,81,"Xanomeline High Dose","01-713-1141","ADSL","AGE","Age","",79,"YEARS",null,"74.38","7.89","76.00","56.00","88.00"],[485,2,81,"Xanomeline High Dose","01-709-1099","ADSL","AGE","Age","",79,"YEARS",null,"74.38","7.89","76.00","56.00","88.00"],[486,2,81,"Xanomeline High Dose","01-704-1093","ADSL","AGE","Age","",79,"YEARS",null,"74.38","7.89","76.00","56.00","88.00"],[487,2,81,"Xanomeline High Dose","01-716-1418","ADSL","AGE","Age","",80,"YEARS",null,"74.38","7.89","76.00","56.00","88.00"],[488,2,81,"Xanomeline High Dose","01-710-1408","ADSL","AGE","Age","",80,"YEARS",null,"74.38","7.89","76.00","56.00","88.00"],[489,2,81,"Xanomeline High Dose","01-704-1332","ADSL","AGE","Age","",80,"YEARS",null,"74.38","7.89","76.00","56.00","88.00"],[490,2,81,"Xanomeline High Dose","01-704-1074","ADSL","AGE","Age","",80,"YEARS",null,"74.38","7.89","76.00","56.00","88.00"],[491,2,81,"Xanomeline High Dose","01-701-1133","ADSL","AGE","Age","",81,"YEARS",null,"74.38","7.89","76.00","56.00","88.00"],[492,2,81,"Xanomeline High Dose","01-710-1278","ADSL","AGE","Age","",81,"YEARS",null,"74.38","7.89","76.00","56.00","88.00"],[493,2,81,"Xanomeline High Dose","01-716-1189","ADSL","AGE","Age","",81,"YEARS",null,"74.38","7.89","76.00","56.00","88.00"],[494,2,81,"Xanomeline High Dose","01-714-1425","ADSL","AGE","Age","",81,"YEARS",null,"74.38","7.89","76.00","56.00","88.00"],[495,2,81,"Xanomeline High Dose","01-709-1029","ADSL","AGE","Age","",82,"YEARS",null,"74.38","7.89","76.00","56.00","88.00"],[496,2,81,"Xanomeline High Dose","01-718-1101","ADSL","AGE","Age","",82,"YEARS",null,"74.38","7.89","76.00","56.00","88.00"],[497,2,81,"Xanomeline High Dose","01-705-1382","ADSL","AGE","Age","",82,"YEARS",null,"74.38","7.89","76.00","56.00","88.00"],[498,2,81,"Xanomeline High Dose","01-704-1266","ADSL","AGE","Age","",82,"YEARS",null,"74.38","7.89","76.00","56.00","88.00"],[499,2,81,"Xanomeline High Dose","01-716-1030","ADSL","AGE","Age","",83,"YEARS",null,"74.38","7.89","76.00","56.00","88.00"],[500,2,81,"Xanomeline High Dose","01-717-1109","ADSL","AGE","Age","",84,"YEARS",null,"74.38","7.89","76.00","56.00","88.00"],[501,2,81,"Xanomeline High Dose","01-716-1364","ADSL","AGE","Age","",84,"YEARS",null,"74.38","7.89","76.00","56.00","88.00"],[502,2,81,"Xanomeline High Dose","01-711-1433","ADSL","AGE","Age","",84,"YEARS",null,"74.38","7.89","76.00","56.00","88.00"],[503,2,81,"Xanomeline High Dose","01-708-1372","ADSL","AGE","Age","",84,"YEARS",null,"74.38","7.89","76.00","56.00","88.00"],[504,2,81,"Xanomeline High Dose","01-710-1070","ADSL","AGE","Age","",85,"YEARS",null,"74.38","7.89","76.00","56.00","88.00"],[505,2,81,"Xanomeline High Dose","01-718-1328","ADSL","AGE","Age","",86,"YEARS",null,"74.38","7.89","76.00","56.00","88.00"],[506,2,81,"Xanomeline High Dose","01-704-1241","ADSL","AGE","Age","",86,"YEARS",null,"74.38","7.89","76.00","56.00","88.00"],[507,2,81,"Xanomeline High Dose","01-708-1236","ADSL","AGE","Age","",86,"YEARS",null,"74.38","7.89","76.00","56.00","88.00"],[508,2,81,"Xanomeline High Dose","01-703-1295","ADSL","AGE","Age","",88,"YEARS",null,"74.38","7.89","76.00","56.00","88.00"],[509,3,0,"Placebo","01-706-1041","ADSL","AGEGR1","Pooled Age Group 1","<65",1,"",14,"","","","",""],[510,3,0,"Placebo","01-717-1344","ADSL","AGEGR1","Pooled Age Group 1","<65",1,"",14,"","","","",""],[511,3,0,"Placebo","01-715-1155","ADSL","AGEGR1","Pooled Age Group 1","<65",1,"",14,"","","","",""],[512,3,0,"Placebo","01-713-1179","ADSL","AGEGR1","Pooled Age Group 1","<65",1,"",14,"","","","",""],[513,3,0,"Placebo","01-709-1306","ADSL","AGEGR1","Pooled Age Group 1","<65",1,"",14,"","","","",""],[514,3,0,"Placebo","01-709-1301","ADSL","AGEGR1","Pooled Age Group 1","<65",1,"",14,"","","","",""],[515,3,0,"Placebo","01-708-1342","ADSL","AGEGR1","Pooled Age Group 1","<65",1,"",14,"","","","",""],[516,3,0,"Placebo","01-708-1253","ADSL","AGEGR1","Pooled Age Group 1","<65",1,"",14,"","","","",""],[517,3,0,"Placebo","01-703-1042","ADSL","AGEGR1","Pooled Age Group 1","<65",1,"",14,"","","","",""],[518,3,0,"Placebo","01-701-1345","ADSL","AGEGR1","Pooled Age Group 1","<65",1,"",14,"","","","",""],[519,3,0,"Placebo","01-701-1118","ADSL","AGEGR1","Pooled Age Group 1","<65",1,"",14,"","","","",""],[520,3,0,"Placebo","01-701-1023","ADSL","AGEGR1","Pooled Age Group 1","<65",1,"",14,"","","","",""],[521,3,0,"Placebo","01-701-1015","ADSL","AGEGR1","Pooled Age Group 1","<65",1,"",14,"","","","",""],[522,3,0,"Placebo","01-708-1296","ADSL","AGEGR1","Pooled Age Group 1","<65",1,"",14,"","","","",""],[523,3,0,"Placebo","01-718-1355","ADSL","AGEGR1","Pooled Age Group 1","65-80",2,"",42,"","","","",""],[524,3,0,"Placebo","01-718-1172","ADSL","AGEGR1","Pooled Age Group 1","65-80",2,"",42,"","","","",""],[525,3,0,"Placebo","01-718-1150","ADSL","AGEGR1","Pooled Age Group 1","65-80",2,"",42,"","","","",""],[526,3,0,"Placebo","01-718-1139","ADSL","AGEGR1","Pooled Age Group 1","65-80",2,"",42,"","","","",""],[527,3,0,"Placebo","01-716-1308","ADSL","AGEGR1","Pooled Age Group 1","65-80",2,"",42,"","","","",""],[528,3,0,"Placebo","01-716-1177","ADSL","AGEGR1","Pooled Age Group 1","65-80",2,"",42,"","","","",""],[529,3,0,"Placebo","01-716-1044","ADSL","AGEGR1","Pooled Age Group 1","65-80",2,"",42,"","","","",""],[530,3,0,"Placebo","01-716-1026","ADSL","AGEGR1","Pooled Age Group 1","65-80",2,"",42,"","","","",""],[531,3,0,"Placebo","01-715-1397","ADSL","AGEGR1","Pooled Age Group 1","65-80",2,"",42,"","","","",""],[532,3,0,"Placebo","01-715-1207","ADSL","AGEGR1","Pooled Age Group 1","65-80",2,"",42,"","","","",""],[533,3,0,"Placebo","01-714-1375","ADSL","AGEGR1","Pooled Age Group 1","65-80",2,"",42,"","","","",""],[534,3,0,"Placebo","01-713-1269","ADSL","AGEGR1","Pooled Age Group 1","65-80",2,"",42,"","","","",""],[535,3,0,"Placebo","01-713-1256","ADSL","AGEGR1","Pooled Age Group 1","65-80",2,"",42,"","","","",""],[536,3,0,"Placebo","01-710-1314","ADSL","AGEGR1","Pooled Age Group 1","65-80",2,"",42,"","","","",""],[537,3,0,"Placebo","01-710-1264","ADSL","AGEGR1","Pooled Age Group 1","65-80",2,"",42,"","","","",""],[538,3,0,"Placebo","01-710-1183","ADSL","AGEGR1","Pooled Age Group 1","65-80",2,"",42,"","","","",""],[539,3,0,"Placebo","01-710-1077","ADSL","AGEGR1","Pooled Age Group 1","65-80",2,"",42,"","","","",""],[540,3,0,"Placebo","01-709-1312","ADSL","AGEGR1","Pooled Age Group 1","65-80",2,"",42,"","","","",""],[541,3,0,"Placebo","01-709-1088","ADSL","AGEGR1","Pooled Age Group 1","65-80",2,"",42,"","","","",""],[542,3,0,"Placebo","01-709-1001","ADSL","AGEGR1","Pooled Age Group 1","65-80",2,"",42,"","","","",""],[543,3,0,"Placebo","01-708-1316","ADSL","AGEGR1","Pooled Age Group 1","65-80",2,"",42,"","","","",""],[544,3,0,"Placebo","01-708-1171","ADSL","AGEGR1","Pooled Age Group 1","65-80",2,"",42,"","","","",""],[545,3,0,"Placebo","01-708-1087","ADSL","AGEGR1","Pooled Age Group 1","65-80",2,"",42,"","","","",""],[546,3,0,"Placebo","01-707-1206","ADSL","AGEGR1","Pooled Age Group 1","65-80",2,"",42,"","","","",""],[547,3,0,"Placebo","01-705-1059","ADSL","AGEGR1","Pooled Age Group 1","65-80",2,"",42,"","","","",""],[548,3,0,"Placebo","01-705-1018","ADSL","AGEGR1","Pooled Age Group 1","65-80",2,"",42,"","","","",""],[549,3,0,"Placebo","01-704-1445","ADSL","AGEGR1","Pooled Age Group 1","65-80",2,"",42,"","","","",""],[550,3,0,"Placebo","01-704-1435","ADSL","AGEGR1","Pooled Age Group 1","65-80",2,"",42,"","","","",""],[551,3,0,"Placebo","01-704-1351","ADSL","AGEGR1","Pooled Age Group 1","65-80",2,"",42,"","","","",""],[552,3,0,"Placebo","01-704-1260","ADSL","AGEGR1","Pooled Age Group 1","65-80",2,"",42,"","","","",""],[553,3,0,"Placebo","01-704-1164","ADSL","AGEGR1","Pooled Age Group 1","65-80",2,"",42,"","","","",""],[554,3,0,"Placebo","01-704-1010","ADSL","AGEGR1","Pooled Age Group 1","65-80",2,"",42,"","","","",""],[555,3,0,"Placebo","01-703-1210","ADSL","AGEGR1","Pooled Age Group 1","65-80",2,"",42,"","","","",""],[556,3,0,"Placebo","01-703-1175","ADSL","AGEGR1","Pooled Age Group 1","65-80",2,"",42,"","","","",""],[557,3,0,"Placebo","01-701-1440","ADSL","AGEGR1","Pooled Age Group 1","65-80",2,"",42,"","","","",""],[558,3,0,"Placebo","01-701-1392","ADSL","AGEGR1","Pooled Age Group 1","65-80",2,"",42,"","","","",""],[559,3,0,"Placebo","01-701-1234","ADSL","AGEGR1","Pooled Age Group 1","65-80",2,"",42,"","","","",""],[560,3,0,"Placebo","01-701-1153","ADSL","AGEGR1","Pooled Age Group 1","65-80",2,"",42,"","","","",""],[561,3,0,"Placebo","01-711-1036","ADSL","AGEGR1","Pooled Age Group 1","65-80",2,"",42,"","","","",""],[562,3,0,"Placebo","01-708-1378","ADSL","AGEGR1","Pooled Age Group 1","65-80",2,"",42,"","","","",""],[563,3,0,"Placebo","01-708-1286","ADSL","AGEGR1","Pooled Age Group 1","65-80",2,"",42,"","","","",""],[564,3,0,"Placebo","01-705-1282","ADSL","AGEGR1","Pooled Age Group 1","65-80",2,"",42,"","","","",""],[565,3,0,"Placebo","01-709-1259","ADSL","AGEGR1","Pooled Age Group 1",">80",3,"",30,"","","","",""],[566,3,0,"Placebo","01-710-1060","ADSL","AGEGR1","Pooled Age Group 1",">80",3,"",30,"","","","",""],[567,3,0,"Placebo","01-704-1233","ADSL","AGEGR1","Pooled Age Group 1",">80",3,"",30,"","","","",""],[568,3,0,"Placebo","01-709-1339","ADSL","AGEGR1","Pooled Age Group 1",">80",3,"",30,"","","","",""],[569,3,0,"Placebo","01-710-1078","ADSL","AGEGR1","Pooled Age Group 1",">80",3,"",30,"","","","",""],[570,3,0,"Placebo","01-710-1027","ADSL","AGEGR1","Pooled Age Group 1",">80",3,"",30,"","","","",""],[571,3,0,"Placebo","01-704-1388","ADSL","AGEGR1","Pooled Age Group 1",">80",3,"",30,"","","","",""],[572,3,0,"Placebo","01-710-1083","ADSL","AGEGR1","Pooled Age Group 1",">80",3,"",30,"","","","",""],[573,3,0,"Placebo","01-710-1368","ADSL","AGEGR1","Pooled Age Group 1",">80",3,"",30,"","","","",""],[574,3,0,"Placebo","01-710-1315","ADSL","AGEGR1","Pooled Age Group 1",">80",3,"",30,"","","","",""],[575,3,0,"Placebo","01-716-1160","ADSL","AGEGR1","Pooled Age Group 1",">80",3,"",30,"","","","",""],[576,3,0,"Placebo","01-703-1100","ADSL","AGEGR1","Pooled Age Group 1",">80",3,"",30,"","","","",""],[577,3,0,"Placebo","01-717-1201","ADSL","AGEGR1","Pooled Age Group 1",">80",3,"",30,"","","","",""],[578,3,0,"Placebo","01-716-1441","ADSL","AGEGR1","Pooled Age Group 1",">80",3,"",30,"","","","",""],[579,3,0,"Placebo","01-705-1186","ADSL","AGEGR1","Pooled Age Group 1",">80",3,"",30,"","","","",""],[580,3,0,"Placebo","01-716-1108","ADSL","AGEGR1","Pooled Age Group 1",">80",3,"",30,"","","","",""],[581,3,0,"Placebo","01-716-1024","ADSL","AGEGR1","Pooled Age Group 1",">80",3,"",30,"","","","",""],[582,3,0,"Placebo","01-714-1035","ADSL","AGEGR1","Pooled Age Group 1",">80",3,"",30,"","","","",""],[583,3,0,"Placebo","01-710-1271","ADSL","AGEGR1","Pooled Age Group 1",">80",3,"",30,"","","","",""],[584,3,0,"Placebo","01-705-1349","ADSL","AGEGR1","Pooled Age Group 1",">80",3,"",30,"","","","",""],[585,3,0,"Placebo","01-708-1158","ADSL","AGEGR1","Pooled Age Group 1",">80",3,"",30,"","","","",""],[586,3,0,"Placebo","01-704-1127","ADSL","AGEGR1","Pooled Age Group 1",">80",3,"",30,"","","","",""],[587,3,0,"Placebo","01-703-1096","ADSL","AGEGR1","Pooled Age Group 1",">80",3,"",30,"","","","",""],[588,3,0,"Placebo","01-701-1415","ADSL","AGEGR1","Pooled Age Group 1",">80",3,"",30,"","","","",""],[589,3,0,"Placebo","01-701-1387","ADSL","AGEGR1","Pooled Age Group 1",">80",3,"",30,"","","","",""],[590,3,0,"Placebo","01-701-1130","ADSL","AGEGR1","Pooled Age Group 1",">80",3,"",30,"","","","",""],[591,3,0,"Placebo","01-701-1047","ADSL","AGEGR1","Pooled Age Group 1",">80",3,"",30,"","","","",""],[592,3,0,"Placebo","01-701-1363","ADSL","AGEGR1","Pooled Age Group 1",">80",3,"",30,"","","","",""],[593,3,0,"Placebo","01-701-1203","ADSL","AGEGR1","Pooled Age Group 1",">80",3,"",30,"","","","",""],[594,3,0,"Placebo","01-703-1299","ADSL","AGEGR1","Pooled Age Group 1",">80",3,"",30,"","","","",""],[595,3,54,"Xanomeline Low Dose","01-705-1031","ADSL","AGEGR1","Pooled Age Group 1","<65",1,"",8,"","","","",""],[596,3,54,"Xanomeline Low Dose","01-709-1007","ADSL","AGEGR1","Pooled Age Group 1","<65",1,"",8,"","","","",""],[597,3,54,"Xanomeline Low Dose","01-708-1297","ADSL","AGEGR1","Pooled Age Group 1","<65",1,"",8,"","","","",""],[598,3,54,"Xanomeline Low Dose","01-705-1292","ADSL","AGEGR1","Pooled Age Group 1","<65",1,"",8,"","","","",""],[599,3,54,"Xanomeline Low Dose","01-701-1442","ADSL","AGEGR1","Pooled Age Group 1","<65",1,"",8,"","","","",""],[600,3,54,"Xanomeline Low Dose","01-710-1235","ADSL","AGEGR1","Pooled Age Group 1","<65",1,"",8,"","","","",""],[601,3,54,"Xanomeline Low Dose","01-701-1341","ADSL","AGEGR1","Pooled Age Group 1","<65",1,"",8,"","","","",""],[602,3,54,"Xanomeline Low Dose","01-708-1032","ADSL","AGEGR1","Pooled Age Group 1","<65",1,"",8,"","","","",""],[603,3,54,"Xanomeline Low Dose","01-705-1431","ADSL","AGEGR1","Pooled Age Group 1","65-80",2,"",47,"","","","",""],[604,3,54,"Xanomeline Low Dose","01-714-1068","ADSL","AGEGR1","Pooled Age Group 1","65-80",2,"",47,"","","","",""],[605,3,54,"Xanomeline Low Dose","01-709-1217","ADSL","AGEGR1","Pooled Age Group 1","65-80",2,"",47,"","","","",""],[606,3,54,"Xanomeline Low Dose","01-710-1300","ADSL","AGEGR1","Pooled Age Group 1","65-80",2,"",47,"","","","",""],[607,3,54,"Xanomeline Low Dose","01-710-1385","ADSL","AGEGR1","Pooled Age Group 1","65-80",2,"",47,"","","","",""],[608,3,54,"Xanomeline Low Dose","01-704-1323","ADSL","AGEGR1","Pooled Age Group 1","65-80",2,"",47,"","","","",""],[609,3,54,"Xanomeline Low Dose","01-708-1084","ADSL","AGEGR1","Pooled Age Group 1","65-80",2,"",47,"","","","",""],[610,3,54,"Xanomeline Low Dose","01-713-1043","ADSL","AGEGR1","Pooled Age Group 1","65-80",2,"",47,"","","","",""],[611,3,54,"Xanomeline Low Dose","01-704-1120","ADSL","AGEGR1","Pooled Age Group 1","65-80",2,"",47,"","","","",""],[612,3,54,"Xanomeline Low Dose","01-707-1037","ADSL","AGEGR1","Pooled Age Group 1","65-80",2,"",47,"","","","",""],[613,3,54,"Xanomeline Low Dose","01-704-1135","ADSL","AGEGR1","Pooled Age Group 1","65-80",2,"",47,"","","","",""],[614,3,54,"Xanomeline Low Dose","01-708-1348","ADSL","AGEGR1","Pooled Age Group 1","65-80",2,"",47,"","","","",""],[615,3,54,"Xanomeline Low Dose","01-708-1019","ADSL","AGEGR1","Pooled Age Group 1","65-80",2,"",47,"","","","",""],[616,3,54,"Xanomeline Low Dose","01-711-1143","ADSL","AGEGR1","Pooled Age Group 1","65-80",2,"",47,"","","","",""],[617,3,54,"Xanomeline Low Dose","01-713-1448","ADSL","AGEGR1","Pooled Age Group 1","65-80",2,"",47,"","","","",""],[618,3,54,"Xanomeline Low Dose","01-703-1086","ADSL","AGEGR1","Pooled Age Group 1","65-80",2,"",47,"","","","",""],[619,3,54,"Xanomeline Low Dose","01-713-1073","ADSL","AGEGR1","Pooled Age Group 1","65-80",2,"",47,"","","","",""],[620,3,54,"Xanomeline Low Dose","01-701-1033","ADSL","AGEGR1","Pooled Age Group 1","65-80",2,"",47,"","","","",""],[621,3,54,"Xanomeline Low Dose","01-701-1188","ADSL","AGEGR1","Pooled Age Group 1","65-80",2,"",47,"","","","",""],[622,3,54,"Xanomeline Low Dose","01-701-1294","ADSL","AGEGR1","Pooled Age Group 1","65-80",2,"",47,"","","","",""],[623,3,54,"Xanomeline Low Dose","01-701-1211","ADSL","AGEGR1","Pooled Age Group 1","65-80",2,"",47,"","","","",""],[624,3,54,"Xanomeline Low Dose","01-701-1317","ADSL","AGEGR1","Pooled Age Group 1","65-80",2,"",47,"","","","",""],[625,3,54,"Xanomeline Low Dose","01-704-1114","ADSL","AGEGR1","Pooled Age Group 1","65-80",2,"",47,"","","","",""],[626,3,54,"Xanomeline Low Dose","01-703-1197","ADSL","AGEGR1","Pooled Age Group 1","65-80",2,"",47,"","","","",""],[627,3,54,"Xanomeline Low Dose","01-714-1195","ADSL","AGEGR1","Pooled Age Group 1","65-80",2,"",47,"","","","",""],[628,3,54,"Xanomeline Low Dose","01-709-1102","ADSL","AGEGR1","Pooled Age Group 1","65-80",2,"",47,"","","","",""],[629,3,54,"Xanomeline Low Dose","01-709-1020","ADSL","AGEGR1","Pooled Age Group 1","65-80",2,"",47,"","","","",""],[630,3,54,"Xanomeline Low Dose","01-706-1384","ADSL","AGEGR1","Pooled Age Group 1","65-80",2,"",47,"","","","",""],[631,3,54,"Xanomeline Low Dose","01-703-1279","ADSL","AGEGR1","Pooled Age Group 1","65-80",2,"",47,"","","","",""],[632,3,54,"Xanomeline Low Dose","01-709-1326","ADSL","AGEGR1","Pooled Age Group 1","65-80",2,"",47,"","","","",""],[633,3,54,"Xanomeline Low Dose","01-701-1324","ADSL","AGEGR1","Pooled Age Group 1","65-80",2,"",47,"","","","",""],[634,3,54,"Xanomeline Low Dose","01-701-1192","ADSL","AGEGR1","Pooled Age Group 1","65-80",2,"",47,"","","","",""],[635,3,54,"Xanomeline Low Dose","01-701-1097","ADSL","AGEGR1","Pooled Age Group 1","65-80",2,"",47,"","","","",""],[636,3,54,"Xanomeline Low Dose","01-715-1085","ADSL","AGEGR1","Pooled Age Group 1","65-80",2,"",47,"","","","",""],[637,3,54,"Xanomeline Low Dose","01-718-1254","ADSL","AGEGR1","Pooled Age Group 1","65-80",2,"",47,"","","","",""],[638,3,54,"Xanomeline Low Dose","01-716-1167","ADSL","AGEGR1","Pooled Age Group 1","65-80",2,"",47,"","","","",""],[639,3,54,"Xanomeline Low Dose","01-715-1405","ADSL","AGEGR1","Pooled Age Group 1","65-80",2,"",47,"","","","",""],[640,3,54,"Xanomeline Low Dose","01-716-1298","ADSL","AGEGR1","Pooled Age Group 1","65-80",2,"",47,"","","","",""],[641,3,54,"Xanomeline Low Dose","01-717-1446","ADSL","AGEGR1","Pooled Age Group 1","65-80",2,"",47,"","","","",""],[642,3,54,"Xanomeline Low Dose","01-715-1107","ADSL","AGEGR1","Pooled Age Group 1","65-80",2,"",47,"","","","",""],[643,3,54,"Xanomeline Low Dose","01-716-1311","ADSL","AGEGR1","Pooled Age Group 1","65-80",2,"",47,"","","","",""],[644,3,54,"Xanomeline Low Dose","01-718-1079","ADSL","AGEGR1","Pooled Age Group 1","65-80",2,"",47,"","","","",""],[645,3,54,"Xanomeline Low Dose","01-717-1004","ADSL","AGEGR1","Pooled Age Group 1","65-80",2,"",47,"","","","",""],[646,3,54,"Xanomeline Low Dose","01-718-1066","ADSL","AGEGR1","Pooled Age Group 1","65-80",2,"",47,"","","","",""],[647,3,54,"Xanomeline Low Dose","01-716-1103","ADSL","AGEGR1","Pooled Age Group 1","65-80",2,"",47,"","","","",""],[648,3,54,"Xanomeline Low Dose","01-718-1170","ADSL","AGEGR1","Pooled Age Group 1","65-80",2,"",47,"","","","",""],[649,3,54,"Xanomeline Low Dose","01-716-1063","ADSL","AGEGR1","Pooled Age Group 1","65-80",2,"",47,"","","","",""],[650,3,54,"Xanomeline Low Dose","01-702-1082","ADSL","AGEGR1","Pooled Age Group 1",">80",3,"",29,"","","","",""],[651,3,54,"Xanomeline Low Dose","01-704-1025","ADSL","AGEGR1","Pooled Age Group 1",">80",3,"",29,"","","","",""],[652,3,54,"Xanomeline Low Dose","01-710-1270","ADSL","AGEGR1","Pooled Age Group 1",">80",3,"",29,"","","","",""],[653,3,54,"Xanomeline Low Dose","01-705-1199","ADSL","AGEGR1","Pooled Age Group 1",">80",3,"",29,"","","","",""],[654,3,54,"Xanomeline Low Dose","01-718-1250","ADSL","AGEGR1","Pooled Age Group 1",">80",3,"",29,"","","","",""],[655,3,54,"Xanomeline Low Dose","01-704-1009","ADSL","AGEGR1","Pooled Age Group 1",">80",3,"",29,"","","","",""],[656,3,54,"Xanomeline Low Dose","01-710-1053","ADSL","AGEGR1","Pooled Age Group 1",">80",3,"",29,"","","","",""],[657,3,54,"Xanomeline Low Dose","01-709-1285","ADSL","AGEGR1","Pooled Age Group 1",">80",3,"",29,"","","","",""],[658,3,54,"Xanomeline Low Dose","01-709-1081","ADSL","AGEGR1","Pooled Age Group 1",">80",3,"",29,"","","","",""],[659,3,54,"Xanomeline Low Dose","01-704-1218","ADSL","AGEGR1","Pooled Age Group 1",">80",3,"",29,"","","","",""],[660,3,54,"Xanomeline Low Dose","01-705-1393","ADSL","AGEGR1","Pooled Age Group 1",">80",3,"",29,"","","","",""],[661,3,54,"Xanomeline Low Dose","01-716-1094","ADSL","AGEGR1","Pooled Age Group 1",">80",3,"",29,"","","","",""],[662,3,54,"Xanomeline Low Dose","01-708-1272","ADSL","AGEGR1","Pooled Age Group 1",">80",3,"",29,"","","","",""],[663,3,54,"Xanomeline Low Dose","01-710-1045","ADSL","AGEGR1","Pooled Age Group 1",">80",3,"",29,"","","","",""],[664,3,54,"Xanomeline Low Dose","01-716-1151","ADSL","AGEGR1","Pooled Age Group 1",">80",3,"",29,"","","","",""],[665,3,54,"Xanomeline Low Dose","01-710-1154","ADSL","AGEGR1","Pooled Age Group 1",">80",3,"",29,"","","","",""],[666,3,54,"Xanomeline Low Dose","01-710-1002","ADSL","AGEGR1","Pooled Age Group 1",">80",3,"",29,"","","","",""],[667,3,54,"Xanomeline Low Dose","01-708-1428","ADSL","AGEGR1","Pooled Age Group 1",">80",3,"",29,"","","","",""],[668,3,54,"Xanomeline Low Dose","01-710-1358","ADSL","AGEGR1","Pooled Age Group 1",">80",3,"",29,"","","","",""],[669,3,54,"Xanomeline Low Dose","01-710-1166","ADSL","AGEGR1","Pooled Age Group 1",">80",3,"",29,"","","","",""],[670,3,54,"Xanomeline Low Dose","01-716-1157","ADSL","AGEGR1","Pooled Age Group 1",">80",3,"",29,"","","","",""],[671,3,54,"Xanomeline Low Dose","01-704-1325","ADSL","AGEGR1","Pooled Age Group 1",">80",3,"",29,"","","","",""],[672,3,54,"Xanomeline Low Dose","01-701-1111","ADSL","AGEGR1","Pooled Age Group 1",">80",3,"",29,"","","","",""],[673,3,54,"Xanomeline Low Dose","01-708-1353","ADSL","AGEGR1","Pooled Age Group 1",">80",3,"",29,"","","","",""],[674,3,54,"Xanomeline Low Dose","01-701-1429","ADSL","AGEGR1","Pooled Age Group 1",">80",3,"",29,"","","","",""],[675,3,54,"Xanomeline Low Dose","01-703-1119","ADSL","AGEGR1","Pooled Age Group 1",">80",3,"",29,"","","","",""],[676,3,54,"Xanomeline Low Dose","01-703-1182","ADSL","AGEGR1","Pooled Age Group 1",">80",3,"",29,"","","","",""],[677,3,54,"Xanomeline Low Dose","01-703-1379","ADSL","AGEGR1","Pooled Age Group 1",">80",3,"",29,"","","","",""],[678,3,54,"Xanomeline Low Dose","01-701-1115","ADSL","AGEGR1","Pooled Age Group 1",">80",3,"",29,"","","","",""],[679,3,81,"Xanomeline High Dose","01-701-1444","ADSL","AGEGR1","Pooled Age Group 1","<65",1,"",11,"","","","",""],[680,3,81,"Xanomeline High Dose","01-701-1239","ADSL","AGEGR1","Pooled Age Group 1","<65",1,"",11,"","","","",""],[681,3,81,"Xanomeline High Dose","01-706-1049","ADSL","AGEGR1","Pooled Age Group 1","<65",1,"",11,"","","","",""],[682,3,81,"Xanomeline High Dose","01-701-1287","ADSL","AGEGR1","Pooled Age Group 1","<65",1,"",11,"","","","",""],[683,3,81,"Xanomeline High Dose","01-708-1347","ADSL","AGEGR1","Pooled Age Group 1","<65",1,"",11,"","","","",""],[684,3,81,"Xanomeline High Dose","01-701-1180","ADSL","AGEGR1","Pooled Age Group 1","<65",1,"",11,"","","","",""],[685,3,81,"Xanomeline High Dose","01-701-1302","ADSL","AGEGR1","Pooled Age Group 1","<65",1,"",11,"","","","",""],[686,3,81,"Xanomeline High Dose","01-705-1377","ADSL","AGEGR1","Pooled Age Group 1","<65",1,"",11,"","","","",""],[687,3,81,"Xanomeline High Dose","01-701-1148","ADSL","AGEGR1","Pooled Age Group 1","<65",1,"",11,"","","","",""],[688,3,81,"Xanomeline High Dose","01-705-1280","ADSL","AGEGR1","Pooled Age Group 1","<65",1,"",11,"","","","",""],[689,3,81,"Xanomeline High Dose","01-701-1275","ADSL","AGEGR1","Pooled Age Group 1","<65",1,"",11,"","","","",""],[690,3,81,"Xanomeline High Dose","01-701-1034","ADSL","AGEGR1","Pooled Age Group 1","65-80",2,"",55,"","","","",""],[691,3,81,"Xanomeline High Dose","01-701-1383","ADSL","AGEGR1","Pooled Age Group 1","65-80",2,"",55,"","","","",""],[692,3,81,"Xanomeline High Dose","01-713-1106","ADSL","AGEGR1","Pooled Age Group 1","65-80",2,"",55,"","","","",""],[693,3,81,"Xanomeline High Dose","01-710-1021","ADSL","AGEGR1","Pooled Age Group 1","65-80",2,"",55,"","","","",""],[694,3,81,"Xanomeline High Dose","01-710-1408","ADSL","AGEGR1","Pooled Age Group 1","65-80",2,"",55,"","","","",""],[695,3,81,"Xanomeline High Dose","01-716-1418","ADSL","AGEGR1","Pooled Age Group 1","65-80",2,"",55,"","","","",""],[696,3,81,"Xanomeline High Dose","01-713-1141","ADSL","AGEGR1","Pooled Age Group 1","65-80",2,"",55,"","","","",""],[697,3,81,"Xanomeline High Dose","01-715-1321","ADSL","AGEGR1","Pooled Age Group 1","65-80",2,"",55,"","","","",""],[698,3,81,"Xanomeline High Dose","01-703-1076","ADSL","AGEGR1","Pooled Age Group 1","65-80",2,"",55,"","","","",""],[699,3,81,"Xanomeline High Dose","01-710-1187","ADSL","AGEGR1","Pooled Age Group 1","65-80",2,"",55,"","","","",""],[700,3,81,"Xanomeline High Dose","01-710-1249","ADSL","AGEGR1","Pooled Age Group 1","65-80",2,"",55,"","","","",""],[701,3,81,"Xanomeline High Dose","01-715-1319","ADSL","AGEGR1","Pooled Age Group 1","65-80",2,"",55,"","","","",""],[702,3,81,"Xanomeline High Dose","01-710-1142","ADSL","AGEGR1","Pooled Age Group 1","65-80",2,"",55,"","","","",""],[703,3,81,"Xanomeline High Dose","01-716-1229","ADSL","AGEGR1","Pooled Age Group 1","65-80",2,"",55,"","","","",""],[704,3,81,"Xanomeline High Dose","01-708-1213","ADSL","AGEGR1","Pooled Age Group 1","65-80",2,"",55,"","","","",""],[705,3,81,"Xanomeline High Dose","01-705-1303","ADSL","AGEGR1","Pooled Age Group 1","65-80",2,"",55,"","","","",""],[706,3,81,"Xanomeline High Dose","01-703-1439","ADSL","AGEGR1","Pooled Age Group 1","65-80",2,"",55,"","","","",""],[707,3,81,"Xanomeline High Dose","01-701-1360","ADSL","AGEGR1","Pooled Age Group 1","65-80",2,"",55,"","","","",""],[708,3,81,"Xanomeline High Dose","01-703-1403","ADSL","AGEGR1","Pooled Age Group 1","65-80",2,"",55,"","","","",""],[709,3,81,"Xanomeline High Dose","01-709-1238","ADSL","AGEGR1","Pooled Age Group 1","65-80",2,"",55,"","","","",""],[710,3,81,"Xanomeline High Dose","01-708-1406","ADSL","AGEGR1","Pooled Age Group 1","65-80",2,"",55,"","","","",""],[711,3,81,"Xanomeline High Dose","01-701-1028","ADSL","AGEGR1","Pooled Age Group 1","65-80",2,"",55,"","","","",""],[712,3,81,"Xanomeline High Dose","01-703-1335","ADSL","AGEGR1","Pooled Age Group 1","65-80",2,"",55,"","","","",""],[713,3,81,"Xanomeline High Dose","01-718-1371","ADSL","AGEGR1","Pooled Age Group 1","65-80",2,"",55,"","","","",""],[714,3,81,"Xanomeline High Dose","01-718-1427","ADSL","AGEGR1","Pooled Age Group 1","65-80",2,"",55,"","","","",""],[715,3,81,"Xanomeline High Dose","01-717-1357","ADSL","AGEGR1","Pooled Age Group 1","65-80",2,"",55,"","","","",""],[716,3,81,"Xanomeline High Dose","01-701-1146","ADSL","AGEGR1","Pooled Age Group 1","65-80",2,"",55,"","","","",""],[717,3,81,"Xanomeline High Dose","01-705-1281","ADSL","AGEGR1","Pooled Age Group 1","65-80",2,"",55,"","","","",""],[718,3,81,"Xanomeline High Dose","01-714-1288","ADSL","AGEGR1","Pooled Age Group 1","65-80",2,"",55,"","","","",""],[719,3,81,"Xanomeline High Dose","01-711-1012","ADSL","AGEGR1","Pooled Age Group 1","65-80",2,"",55,"","","","",""],[720,3,81,"Xanomeline High Dose","01-709-1309","ADSL","AGEGR1","Pooled Age Group 1","65-80",2,"",55,"","","","",""],[721,3,81,"Xanomeline High Dose","01-713-1209","ADSL","AGEGR1","Pooled Age Group 1","65-80",2,"",55,"","","","",""],[722,3,81,"Xanomeline High Dose","01-710-1354","ADSL","AGEGR1","Pooled Age Group 1","65-80",2,"",55,"","","","",""],[723,3,81,"Xanomeline High Dose","01-716-1071","ADSL","AGEGR1","Pooled Age Group 1","65-80",2,"",55,"","","","",""],[724,3,81,"Xanomeline High Dose","01-717-1174","ADSL","AGEGR1","Pooled Age Group 1","65-80",2,"",55,"","","","",""],[725,3,81,"Xanomeline High Dose","01-709-1424","ADSL","AGEGR1","Pooled Age Group 1","65-80",2,"",55,"","","","",""],[726,3,81,"Xanomeline High Dose","01-716-1373","ADSL","AGEGR1","Pooled Age Group 1","65-80",2,"",55,"","","","",""],[727,3,81,"Xanomeline High Dose","01-710-1006","ADSL","AGEGR1","Pooled Age Group 1","65-80",2,"",55,"","","","",""],[728,3,81,"Xanomeline High Dose","01-710-1137","ADSL","AGEGR1","Pooled Age Group 1","65-80",2,"",55,"","","","",""],[729,3,81,"Xanomeline High Dose","01-708-1178","ADSL","AGEGR1","Pooled Age Group 1","65-80",2,"",55,"","","","",""],[730,3,81,"Xanomeline High Dose","01-704-1074","ADSL","AGEGR1","Pooled Age Group 1","65-80",2,"",55,"","","","",""],[731,3,81,"Xanomeline High Dose","01-716-1447","ADSL","AGEGR1","Pooled Age Group 1","65-80",2,"",55,"","","","",""],[732,3,81,"Xanomeline High Dose","01-708-1216","ADSL","AGEGR1","Pooled Age Group 1","65-80",2,"",55,"","","","",""],[733,3,81,"Xanomeline High Dose","01-709-1329","ADSL","AGEGR1","Pooled Age Group 1","65-80",2,"",55,"","","","",""],[734,3,81,"Xanomeline High Dose","01-709-1099","ADSL","AGEGR1","Pooled Age Group 1","65-80",2,"",55,"","","","",""],[735,3,81,"Xanomeline High Dose","01-704-1065","ADSL","AGEGR1","Pooled Age Group 1","65-80",2,"",55,"","","","",""],[736,3,81,"Xanomeline High Dose","01-708-1336","ADSL","AGEGR1","Pooled Age Group 1","65-80",2,"",55,"","","","",""],[737,3,81,"Xanomeline High Dose","01-704-1332","ADSL","AGEGR1","Pooled Age Group 1","65-80",2,"",55,"","","","",""],[738,3,81,"Xanomeline High Dose","01-703-1258","ADSL","AGEGR1","Pooled Age Group 1","65-80",2,"",55,"","","","",""],[739,3,81,"Xanomeline High Dose","01-704-1017","ADSL","AGEGR1","Pooled Age Group 1","65-80",2,"",55,"","","","",""],[740,3,81,"Xanomeline High Dose","01-704-1093","ADSL","AGEGR1","Pooled Age Group 1","65-80",2,"",55,"","","","",""],[741,3,81,"Xanomeline High Dose","01-705-1310","ADSL","AGEGR1","Pooled Age Group 1","65-80",2,"",55,"","","","",""],[742,3,81,"Xanomeline High Dose","01-709-1168","ADSL","AGEGR1","Pooled Age Group 1","65-80",2,"",55,"","","","",""],[743,3,81,"Xanomeline High Dose","01-704-1008","ADSL","AGEGR1","Pooled Age Group 1","65-80",2,"",55,"","","","",""],[744,3,81,"Xanomeline High Dose","01-701-1181","ADSL","AGEGR1","Pooled Age Group 1","65-80",2,"",55,"","","","",""],[745,3,81,"Xanomeline High Dose","01-718-1328","ADSL","AGEGR1","Pooled Age Group 1",">80",3,"",18,"","","","",""],[746,3,81,"Xanomeline High Dose","01-710-1278","ADSL","AGEGR1","Pooled Age Group 1",">80",3,"",18,"","","","",""],[747,3,81,"Xanomeline High Dose","01-717-1109","ADSL","AGEGR1","Pooled Age Group 1",">80",3,"",18,"","","","",""],[748,3,81,"Xanomeline High Dose","01-703-1295","ADSL","AGEGR1","Pooled Age Group 1",">80",3,"",18,"","","","",""],[749,3,81,"Xanomeline High Dose","01-718-1101","ADSL","AGEGR1","Pooled Age Group 1",">80",3,"",18,"","","","",""],[750,3,81,"Xanomeline High Dose","01-708-1236","ADSL","AGEGR1","Pooled Age Group 1",">80",3,"",18,"","","","",""],[751,3,81,"Xanomeline High Dose","01-704-1266","ADSL","AGEGR1","Pooled Age Group 1",">80",3,"",18,"","","","",""],[752,3,81,"Xanomeline High Dose","01-701-1133","ADSL","AGEGR1","Pooled Age Group 1",">80",3,"",18,"","","","",""],[753,3,81,"Xanomeline High Dose","01-716-1189","ADSL","AGEGR1","Pooled Age Group 1",">80",3,"",18,"","","","",""],[754,3,81,"Xanomeline High Dose","01-711-1433","ADSL","AGEGR1","Pooled Age Group 1",">80",3,"",18,"","","","",""],[755,3,81,"Xanomeline High Dose","01-716-1364","ADSL","AGEGR1","Pooled Age Group 1",">80",3,"",18,"","","","",""],[756,3,81,"Xanomeline High Dose","01-709-1029","ADSL","AGEGR1","Pooled Age Group 1",">80",3,"",18,"","","","",""],[757,3,81,"Xanomeline High Dose","01-714-1425","ADSL","AGEGR1","Pooled Age Group 1",">80",3,"",18,"","","","",""],[758,3,81,"Xanomeline High Dose","01-705-1382","ADSL","AGEGR1","Pooled Age Group 1",">80",3,"",18,"","","","",""],[759,3,81,"Xanomeline High Dose","01-704-1241","ADSL","AGEGR1","Pooled Age Group 1",">80",3,"",18,"","","","",""],[760,3,81,"Xanomeline High Dose","01-708-1372","ADSL","AGEGR1","Pooled Age Group 1",">80",3,"",18,"","","","",""],[761,3,81,"Xanomeline High Dose","01-716-1030","ADSL","AGEGR1","Pooled Age Group 1",">80",3,"",18,"","","","",""],[762,3,81,"Xanomeline High Dose","01-710-1070","ADSL","AGEGR1","Pooled Age Group 1",">80",3,"",18,"","","","",""],[763,4,0,"Placebo","01-703-1096","ADSL","RACE","Race","WHITE",1,"",78,"","","","",""],[764,4,0,"Placebo","01-710-1368","ADSL","RACE","Race","WHITE",1,"",78,"","","","",""],[765,4,0,"Placebo","01-710-1083","ADSL","RACE","Race","WHITE",1,"",78,"","","","",""],[766,4,0,"Placebo","01-710-1078","ADSL","RACE","Race","WHITE",1,"",78,"","","","",""],[767,4,0,"Placebo","01-709-1259","ADSL","RACE","Race","WHITE",1,"",78,"","","","",""],[768,4,0,"Placebo","01-705-1349","ADSL","RACE","Race","WHITE",1,"",78,"","","","",""],[769,4,0,"Placebo","01-704-1388","ADSL","RACE","Race","WHITE",1,"",78,"","","","",""],[770,4,0,"Placebo","01-703-1100","ADSL","RACE","Race","WHITE",1,"",78,"","","","",""],[771,4,0,"Placebo","01-701-1415","ADSL","RACE","Race","WHITE",1,"",78,"","","","",""],[772,4,0,"Placebo","01-701-1130","ADSL","RACE","Race","WHITE",1,"",78,"","","","",""],[773,4,0,"Placebo","01-717-1344","ADSL","RACE","Race","WHITE",1,"",78,"","","","",""],[774,4,0,"Placebo","01-709-1301","ADSL","RACE","Race","WHITE",1,"",78,"","","","",""],[775,4,0,"Placebo","01-708-1253","ADSL","RACE","Race","WHITE",1,"",78,"","","","",""],[776,4,0,"Placebo","01-701-1345","ADSL","RACE","Race","WHITE",1,"",78,"","","","",""],[777,4,0,"Placebo","01-701-1023","ADSL","RACE","Race","WHITE",1,"",78,"","","","",""],[778,4,0,"Placebo","01-718-1355","ADSL","RACE","Race","WHITE",1,"",78,"","","","",""],[779,4,0,"Placebo","01-718-1150","ADSL","RACE","Race","WHITE",1,"",78,"","","","",""],[780,4,0,"Placebo","01-716-1308","ADSL","RACE","Race","WHITE",1,"",78,"","","","",""],[781,4,0,"Placebo","01-716-1044","ADSL","RACE","Race","WHITE",1,"",78,"","","","",""],[782,4,0,"Placebo","01-715-1397","ADSL","RACE","Race","WHITE",1,"",78,"","","","",""],[783,4,0,"Placebo","01-714-1375","ADSL","RACE","Race","WHITE",1,"",78,"","","","",""],[784,4,0,"Placebo","01-704-1127","ADSL","RACE","Race","WHITE",1,"",78,"","","","",""],[785,4,0,"Placebo","01-713-1256","ADSL","RACE","Race","WHITE",1,"",78,"","","","",""],[786,4,0,"Placebo","01-710-1264","ADSL","RACE","Race","WHITE",1,"",78,"","","","",""],[787,4,0,"Placebo","01-710-1077","ADSL","RACE","Race","WHITE",1,"",78,"","","","",""],[788,4,0,"Placebo","01-709-1088","ADSL","RACE","Race","WHITE",1,"",78,"","","","",""],[789,4,0,"Placebo","01-708-1316","ADSL","RACE","Race","WHITE",1,"",78,"","","","",""],[790,4,0,"Placebo","01-708-1087","ADSL","RACE","Race","WHITE",1,"",78,"","","","",""],[791,4,0,"Placebo","01-705-1059","ADSL","RACE","Race","WHITE",1,"",78,"","","","",""],[792,4,0,"Placebo","01-704-1445","ADSL","RACE","Race","WHITE",1,"",78,"","","","",""],[793,4,0,"Placebo","01-710-1027","ADSL","RACE","Race","WHITE",1,"",78,"","","","",""],[794,4,0,"Placebo","01-710-1271","ADSL","RACE","Race","WHITE",1,"",78,"","","","",""],[795,4,0,"Placebo","01-716-1024","ADSL","RACE","Race","WHITE",1,"",78,"","","","",""],[796,4,0,"Placebo","01-704-1351","ADSL","RACE","Race","WHITE",1,"",78,"","","","",""],[797,4,0,"Placebo","01-704-1164","ADSL","RACE","Race","WHITE",1,"",78,"","","","",""],[798,4,0,"Placebo","01-703-1210","ADSL","RACE","Race","WHITE",1,"",78,"","","","",""],[799,4,0,"Placebo","01-701-1153","ADSL","RACE","Race","WHITE",1,"",78,"","","","",""],[800,4,0,"Placebo","01-701-1234","ADSL","RACE","Race","WHITE",1,"",78,"","","","",""],[801,4,0,"Placebo","01-703-1175","ADSL","RACE","Race","WHITE",1,"",78,"","","","",""],[802,4,0,"Placebo","01-701-1392","ADSL","RACE","Race","WHITE",1,"",78,"","","","",""],[803,4,0,"Placebo","01-717-1201","ADSL","RACE","Race","WHITE",1,"",78,"","","","",""],[804,4,0,"Placebo","01-704-1435","ADSL","RACE","Race","WHITE",1,"",78,"","","","",""],[805,4,0,"Placebo","01-710-1315","ADSL","RACE","Race","WHITE",1,"",78,"","","","",""],[806,4,0,"Placebo","01-710-1314","ADSL","RACE","Race","WHITE",1,"",78,"","","","",""],[807,4,0,"Placebo","01-704-1233","ADSL","RACE","Race","WHITE",1,"",78,"","","","",""],[808,4,0,"Placebo","01-716-1160","ADSL","RACE","Race","WHITE",1,"",78,"","","","",""],[809,4,0,"Placebo","01-703-1299","ADSL","RACE","Race","WHITE",1,"",78,"","","","",""],[810,4,0,"Placebo","01-709-1001","ADSL","RACE","Race","WHITE",1,"",78,"","","","",""],[811,4,0,"Placebo","01-716-1177","ADSL","RACE","Race","WHITE",1,"",78,"","","","",""],[812,4,0,"Placebo","01-715-1155","ADSL","RACE","Race","WHITE",1,"",78,"","","","",""],[813,4,0,"Placebo","01-709-1339","ADSL","RACE","Race","WHITE",1,"",78,"","","","",""],[814,4,0,"Placebo","01-709-1312","ADSL","RACE","Race","WHITE",1,"",78,"","","","",""],[815,4,0,"Placebo","01-701-1047","ADSL","RACE","Race","WHITE",1,"",78,"","","","",""],[816,4,0,"Placebo","01-701-1015","ADSL","RACE","Race","WHITE",1,"",78,"","","","",""],[817,4,0,"Placebo","01-716-1026","ADSL","RACE","Race","WHITE",1,"",78,"","","","",""],[818,4,0,"Placebo","01-716-1441","ADSL","RACE","Race","WHITE",1,"",78,"","","","",""],[819,4,0,"Placebo","01-715-1207","ADSL","RACE","Race","WHITE",1,"",78,"","","","",""],[820,4,0,"Placebo","01-718-1172","ADSL","RACE","Race","WHITE",1,"",78,"","","","",""],[821,4,0,"Placebo","01-704-1010","ADSL","RACE","Race","WHITE",1,"",78,"","","","",""],[822,4,0,"Placebo","01-707-1206","ADSL","RACE","Race","WHITE",1,"",78,"","","","",""],[823,4,0,"Placebo","01-718-1139","ADSL","RACE","Race","WHITE",1,"",78,"","","","",""],[824,4,0,"Placebo","01-708-1342","ADSL","RACE","Race","WHITE",1,"",78,"","","","",""],[825,4,0,"Placebo","01-701-1118","ADSL","RACE","Race","WHITE",1,"",78,"","","","",""],[826,4,0,"Placebo","01-703-1042","ADSL","RACE","Race","WHITE",1,"",78,"","","","",""],[827,4,0,"Placebo","01-708-1158","ADSL","RACE","Race","WHITE",1,"",78,"","","","",""],[828,4,0,"Placebo","01-709-1306","ADSL","RACE","Race","WHITE",1,"",78,"","","","",""],[829,4,0,"Placebo","01-705-1018","ADSL","RACE","Race","WHITE",1,"",78,"","","","",""],[830,4,0,"Placebo","01-710-1183","ADSL","RACE","Race","WHITE",1,"",78,"","","","",""],[831,4,0,"Placebo","01-713-1269","ADSL","RACE","Race","WHITE",1,"",78,"","","","",""],[832,4,0,"Placebo","01-701-1387","ADSL","RACE","Race","WHITE",1,"",78,"","","","",""],[833,4,0,"Placebo","01-716-1108","ADSL","RACE","Race","WHITE",1,"",78,"","","","",""],[834,4,0,"Placebo","01-714-1035","ADSL","RACE","Race","WHITE",1,"",78,"","","","",""],[835,4,0,"Placebo","01-704-1260","ADSL","RACE","Race","WHITE",1,"",78,"","","","",""],[836,4,0,"Placebo","01-708-1171","ADSL","RACE","Race","WHITE",1,"",78,"","","","",""],[837,4,0,"Placebo","01-710-1060","ADSL","RACE","Race","WHITE",1,"",78,"","","","",""],[838,4,0,"Placebo","01-701-1440","ADSL","RACE","Race","WHITE",1,"",78,"","","","",""],[839,4,0,"Placebo","01-713-1179","ADSL","RACE","Race","WHITE",1,"",78,"","","","",""],[840,4,0,"Placebo","01-705-1186","ADSL","RACE","Race","WHITE",1,"",78,"","","","",""],[841,4,0,"Placebo","01-701-1363","ADSL","RACE","Race","BLACK OR AFRICAN AMERICAN",2,"",8,"","","","",""],[842,4,0,"Placebo","01-711-1036","ADSL","RACE","Race","BLACK OR AFRICAN AMERICAN",2,"",8,"","","","",""],[843,4,0,"Placebo","01-708-1378","ADSL","RACE","Race","BLACK OR AFRICAN AMERICAN",2,"",8,"","","","",""],[844,4,0,"Placebo","01-708-1286","ADSL","RACE","Race","BLACK OR AFRICAN AMERICAN",2,"",8,"","","","",""],[845,4,0,"Placebo","01-705-1282","ADSL","RACE","Race","BLACK OR AFRICAN AMERICAN",2,"",8,"","","","",""],[846,4,0,"Placebo","01-706-1041","ADSL","RACE","Race","BLACK OR AFRICAN AMERICAN",2,"",8,"","","","",""],[847,4,0,"Placebo","01-708-1296","ADSL","RACE","Race","BLACK OR AFRICAN AMERICAN",2,"",8,"","","","",""],[848,4,0,"Placebo","01-701-1203","ADSL","RACE","Race","BLACK OR AFRICAN AMERICAN",2,"",8,"","","","",""],[849,4,54,"Xanomeline Low Dose","01-702-1082","ADSL","RACE","Race","WHITE",1,"",78,"","","","",""],[850,4,54,"Xanomeline Low Dose","01-716-1157","ADSL","RACE","Race","WHITE",1,"",78,"","","","",""],[851,4,54,"Xanomeline Low Dose","01-716-1151","ADSL","RACE","Race","WHITE",1,"",78,"","","","",""],[852,4,54,"Xanomeline Low Dose","01-710-1166","ADSL","RACE","Race","WHITE",1,"",78,"","","","",""],[853,4,54,"Xanomeline Low Dose","01-710-1053","ADSL","RACE","Race","WHITE",1,"",78,"","","","",""],[854,4,54,"Xanomeline Low Dose","01-710-1002","ADSL","RACE","Race","WHITE",1,"",78,"","","","",""],[855,4,54,"Xanomeline Low Dose","01-708-1272","ADSL","RACE","Race","WHITE",1,"",78,"","","","",""],[856,4,54,"Xanomeline Low Dose","01-705-1393","ADSL","RACE","Race","WHITE",1,"",78,"","","","",""],[857,4,54,"Xanomeline Low Dose","01-705-1199","ADSL","RACE","Race","WHITE",1,"",78,"","","","",""],[858,4,54,"Xanomeline Low Dose","01-704-1218","ADSL","RACE","Race","WHITE",1,"",78,"","","","",""],[859,4,54,"Xanomeline Low Dose","01-704-1025","ADSL","RACE","Race","WHITE",1,"",78,"","","","",""],[860,4,54,"Xanomeline Low Dose","01-704-1009","ADSL","RACE","Race","WHITE",1,"",78,"","","","",""],[861,4,54,"Xanomeline Low Dose","01-703-1119","ADSL","RACE","Race","WHITE",1,"",78,"","","","",""],[862,4,54,"Xanomeline Low Dose","01-701-1111","ADSL","RACE","Race","WHITE",1,"",78,"","","","",""],[863,4,54,"Xanomeline Low Dose","01-709-1007","ADSL","RACE","Race","WHITE",1,"",78,"","","","",""],[864,4,54,"Xanomeline Low Dose","01-708-1032","ADSL","RACE","Race","WHITE",1,"",78,"","","","",""],[865,4,54,"Xanomeline Low Dose","01-701-1341","ADSL","RACE","Race","WHITE",1,"",78,"","","","",""],[866,4,54,"Xanomeline Low Dose","01-718-1170","ADSL","RACE","Race","WHITE",1,"",78,"","","","",""],[867,4,54,"Xanomeline Low Dose","01-718-1066","ADSL","RACE","Race","WHITE",1,"",78,"","","","",""],[868,4,54,"Xanomeline Low Dose","01-717-1004","ADSL","RACE","Race","WHITE",1,"",78,"","","","",""],[869,4,54,"Xanomeline Low Dose","01-716-1298","ADSL","RACE","Race","WHITE",1,"",78,"","","","",""],[870,4,54,"Xanomeline Low Dose","01-716-1103","ADSL","RACE","Race","WHITE",1,"",78,"","","","",""],[871,4,54,"Xanomeline Low Dose","01-715-1405","ADSL","RACE","Race","WHITE",1,"",78,"","","","",""],[872,4,54,"Xanomeline Low Dose","01-715-1085","ADSL","RACE","Race","WHITE",1,"",78,"","","","",""],[873,4,54,"Xanomeline Low Dose","01-714-1068","ADSL","RACE","Race","WHITE",1,"",78,"","","","",""],[874,4,54,"Xanomeline Low Dose","01-713-1043","ADSL","RACE","Race","WHITE",1,"",78,"","","","",""],[875,4,54,"Xanomeline Low Dose","01-710-1385","ADSL","RACE","Race","WHITE",1,"",78,"","","","",""],[876,4,54,"Xanomeline Low Dose","01-709-1326","ADSL","RACE","Race","WHITE",1,"",78,"","","","",""],[877,4,54,"Xanomeline Low Dose","01-708-1348","ADSL","RACE","Race","WHITE",1,"",78,"","","","",""],[878,4,54,"Xanomeline Low Dose","01-708-1019","ADSL","RACE","Race","WHITE",1,"",78,"","","","",""],[879,4,54,"Xanomeline Low Dose","01-706-1384","ADSL","RACE","Race","WHITE",1,"",78,"","","","",""],[880,4,54,"Xanomeline Low Dose","01-705-1431","ADSL","RACE","Race","WHITE",1,"",78,"","","","",""],[881,4,54,"Xanomeline Low Dose","01-704-1323","ADSL","RACE","Race","WHITE",1,"",78,"","","","",""],[882,4,54,"Xanomeline Low Dose","01-704-1120","ADSL","RACE","Race","WHITE",1,"",78,"","","","",""],[883,4,54,"Xanomeline Low Dose","01-703-1279","ADSL","RACE","Race","WHITE",1,"",78,"","","","",""],[884,4,54,"Xanomeline Low Dose","01-701-1324","ADSL","RACE","Race","WHITE",1,"",78,"","","","",""],[885,4,54,"Xanomeline Low Dose","01-701-1294","ADSL","RACE","Race","WHITE",1,"",78,"","","","",""],[886,4,54,"Xanomeline Low Dose","01-701-1192","ADSL","RACE","Race","WHITE",1,"",78,"","","","",""],[887,4,54,"Xanomeline Low Dose","01-701-1097","ADSL","RACE","Race","WHITE",1,"",78,"","","","",""],[888,4,54,"Xanomeline Low Dose","01-701-1033","ADSL","RACE","Race","WHITE",1,"",78,"","","","",""],[889,4,54,"Xanomeline Low Dose","01-701-1188","ADSL","RACE","Race","WHITE",1,"",78,"","","","",""],[890,4,54,"Xanomeline Low Dose","01-704-1114","ADSL","RACE","Race","WHITE",1,"",78,"","","","",""],[891,4,54,"Xanomeline Low Dose","01-716-1311","ADSL","RACE","Race","WHITE",1,"",78,"","","","",""],[892,4,54,"Xanomeline Low Dose","01-710-1154","ADSL","RACE","Race","WHITE",1,"",78,"","","","",""],[893,4,54,"Xanomeline Low Dose","01-714-1195","ADSL","RACE","Race","WHITE",1,"",78,"","","","",""],[894,4,54,"Xanomeline Low Dose","01-717-1446","ADSL","RACE","Race","WHITE",1,"",78,"","","","",""],[895,4,54,"Xanomeline Low Dose","01-704-1325","ADSL","RACE","Race","WHITE",1,"",78,"","","","",""],[896,4,54,"Xanomeline Low Dose","01-710-1045","ADSL","RACE","Race","WHITE",1,"",78,"","","","",""],[897,4,54,"Xanomeline Low Dose","01-716-1094","ADSL","RACE","Race","WHITE",1,"",78,"","","","",""],[898,4,54,"Xanomeline Low Dose","01-709-1217","ADSL","RACE","Race","WHITE",1,"",78,"","","","",""],[899,4,54,"Xanomeline Low Dose","01-715-1107","ADSL","RACE","Race","WHITE",1,"",78,"","","","",""],[900,4,54,"Xanomeline Low Dose","01-709-1020","ADSL","RACE","Race","WHITE",1,"",78,"","","","",""],[901,4,54,"Xanomeline Low Dose","01-713-1448","ADSL","RACE","Race","WHITE",1,"",78,"","","","",""],[902,4,54,"Xanomeline Low Dose","01-705-1031","ADSL","RACE","Race","WHITE",1,"",78,"","","","",""],[903,4,54,"Xanomeline Low Dose","01-708-1297","ADSL","RACE","Race","WHITE",1,"",78,"","","","",""],[904,4,54,"Xanomeline Low Dose","01-701-1115","ADSL","RACE","Race","WHITE",1,"",78,"","","","",""],[905,4,54,"Xanomeline Low Dose","01-703-1086","ADSL","RACE","Race","WHITE",1,"",78,"","","","",""],[906,4,54,"Xanomeline Low Dose","01-716-1063","ADSL","RACE","Race","WHITE",1,"",78,"","","","",""],[907,4,54,"Xanomeline Low Dose","01-707-1037","ADSL","RACE","Race","WHITE",1,"",78,"","","","",""],[908,4,54,"Xanomeline Low Dose","01-709-1285","ADSL","RACE","Race","WHITE",1,"",78,"","","","",""],[909,4,54,"Xanomeline Low Dose","01-710-1358","ADSL","RACE","Race","WHITE",1,"",78,"","","","",""],[910,4,54,"Xanomeline Low Dose","01-716-1167","ADSL","RACE","Race","WHITE",1,"",78,"","","","",""],[911,4,54,"Xanomeline Low Dose","01-703-1182","ADSL","RACE","Race","WHITE",1,"",78,"","","","",""],[912,4,54,"Xanomeline Low Dose","01-711-1143","ADSL","RACE","Race","WHITE",1,"",78,"","","","",""],[913,4,54,"Xanomeline Low Dose","01-718-1079","ADSL","RACE","Race","WHITE",1,"",78,"","","","",""],[914,4,54,"Xanomeline Low Dose","01-710-1300","ADSL","RACE","Race","WHITE",1,"",78,"","","","",""],[915,4,54,"Xanomeline Low Dose","01-718-1254","ADSL","RACE","Race","WHITE",1,"",78,"","","","",""],[916,4,54,"Xanomeline Low Dose","01-710-1235","ADSL","RACE","Race","WHITE",1,"",78,"","","","",""],[917,4,54,"Xanomeline Low Dose","01-701-1429","ADSL","RACE","Race","WHITE",1,"",78,"","","","",""],[918,4,54,"Xanomeline Low Dose","01-704-1135","ADSL","RACE","Race","WHITE",1,"",78,"","","","",""],[919,4,54,"Xanomeline Low Dose","01-710-1270","ADSL","RACE","Race","WHITE",1,"",78,"","","","",""],[920,4,54,"Xanomeline Low Dose","01-709-1102","ADSL","RACE","Race","WHITE",1,"",78,"","","","",""],[921,4,54,"Xanomeline Low Dose","01-718-1250","ADSL","RACE","Race","WHITE",1,"",78,"","","","",""],[922,4,54,"Xanomeline Low Dose","01-708-1084","ADSL","RACE","Race","WHITE",1,"",78,"","","","",""],[923,4,54,"Xanomeline Low Dose","01-708-1428","ADSL","RACE","Race","WHITE",1,"",78,"","","","",""],[924,4,54,"Xanomeline Low Dose","01-709-1081","ADSL","RACE","Race","WHITE",1,"",78,"","","","",""],[925,4,54,"Xanomeline Low Dose","01-701-1211","ADSL","RACE","Race","WHITE",1,"",78,"","","","",""],[926,4,54,"Xanomeline Low Dose","01-701-1317","ADSL","RACE","Race","WHITE",1,"",78,"","","","",""],[927,4,54,"Xanomeline Low Dose","01-705-1292","ADSL","RACE","Race","BLACK OR AFRICAN AMERICAN",2,"",6,"","","","",""],[928,4,54,"Xanomeline Low Dose","01-713-1073","ADSL","RACE","Race","BLACK OR AFRICAN AMERICAN",2,"",6,"","","","",""],[929,4,54,"Xanomeline Low Dose","01-703-1197","ADSL","RACE","Race","BLACK OR AFRICAN AMERICAN",2,"",6,"","","","",""],[930,4,54,"Xanomeline Low Dose","01-708-1353","ADSL","RACE","Race","BLACK OR AFRICAN AMERICAN",2,"",6,"","","","",""],[931,4,54,"Xanomeline Low Dose","01-703-1379","ADSL","RACE","Race","BLACK OR AFRICAN AMERICAN",2,"",6,"","","","",""],[932,4,54,"Xanomeline Low Dose","01-701-1442","ADSL","RACE","Race","BLACK OR AFRICAN AMERICAN",2,"",6,"","","","",""],[933,4,81,"Xanomeline High Dose","01-710-1187","ADSL","RACE","Race","WHITE",1,"",74,"","","","",""],[934,4,81,"Xanomeline High Dose","01-705-1280","ADSL","RACE","Race","WHITE",1,"",74,"","","","",""],[935,4,81,"Xanomeline High Dose","01-713-1209","ADSL","RACE","Race","WHITE",1,"",74,"","","","",""],[936,4,81,"Xanomeline High Dose","01-718-1371","ADSL","RACE","Race","WHITE",1,"",74,"","","","",""],[937,4,81,"Xanomeline High Dose","01-709-1099","ADSL","RACE","Race","WHITE",1,"",74,"","","","",""],[938,4,81,"Xanomeline High Dose","01-713-1141","ADSL","RACE","Race","WHITE",1,"",74,"","","","",""],[939,4,81,"Xanomeline High Dose","01-716-1364","ADSL","RACE","Race","WHITE",1,"",74,"","","","",""],[940,4,81,"Xanomeline High Dose","01-716-1030","ADSL","RACE","Race","WHITE",1,"",74,"","","","",""],[941,4,81,"Xanomeline High Dose","01-711-1433","ADSL","RACE","Race","WHITE",1,"",74,"","","","",""],[942,4,81,"Xanomeline High Dose","01-710-1070","ADSL","RACE","Race","WHITE",1,"",74,"","","","",""],[943,4,81,"Xanomeline High Dose","01-705-1382","ADSL","RACE","Race","WHITE",1,"",74,"","","","",""],[944,4,81,"Xanomeline High Dose","01-704-1241","ADSL","RACE","Race","WHITE",1,"",74,"","","","",""],[945,4,81,"Xanomeline High Dose","01-703-1295","ADSL","RACE","Race","WHITE",1,"",74,"","","","",""],[946,4,81,"Xanomeline High Dose","01-701-1133","ADSL","RACE","Race","WHITE",1,"",74,"","","","",""],[947,4,81,"Xanomeline High Dose","01-701-1444","ADSL","RACE","Race","WHITE",1,"",74,"","","","",""],[948,4,81,"Xanomeline High Dose","01-701-1287","ADSL","RACE","Race","WHITE",1,"",74,"","","","",""],[949,4,81,"Xanomeline High Dose","01-701-1239","ADSL","RACE","Race","WHITE",1,"",74,"","","","",""],[950,4,81,"Xanomeline High Dose","01-701-1180","ADSL","RACE","Race","WHITE",1,"",74,"","","","",""],[951,4,81,"Xanomeline High Dose","01-717-1174","ADSL","RACE","Race","WHITE",1,"",74,"","","","",""],[952,4,81,"Xanomeline High Dose","01-716-1418","ADSL","RACE","Race","WHITE",1,"",74,"","","","",""],[953,4,81,"Xanomeline High Dose","01-716-1229","ADSL","RACE","Race","WHITE",1,"",74,"","","","",""],[954,4,81,"Xanomeline High Dose","01-715-1321","ADSL","RACE","Race","WHITE",1,"",74,"","","","",""],[955,4,81,"Xanomeline High Dose","01-713-1106","ADSL","RACE","Race","WHITE",1,"",74,"","","","",""],[956,4,81,"Xanomeline High Dose","01-711-1012","ADSL","RACE","Race","WHITE",1,"",74,"","","","",""],[957,4,81,"Xanomeline High Dose","01-710-1408","ADSL","RACE","Race","WHITE",1,"",74,"","","","",""],[958,4,81,"Xanomeline High Dose","01-710-1249","ADSL","RACE","Race","WHITE",1,"",74,"","","","",""],[959,4,81,"Xanomeline High Dose","01-710-1142","ADSL","RACE","Race","WHITE",1,"",74,"","","","",""],[960,4,81,"Xanomeline High Dose","01-709-1424","ADSL","RACE","Race","WHITE",1,"",74,"","","","",""],[961,4,81,"Xanomeline High Dose","01-709-1329","ADSL","RACE","Race","WHITE",1,"",74,"","","","",""],[962,4,81,"Xanomeline High Dose","01-709-1309","ADSL","RACE","Race","WHITE",1,"",74,"","","","",""],[963,4,81,"Xanomeline High Dose","01-709-1168","ADSL","RACE","Race","WHITE",1,"",74,"","","","",""],[964,4,81,"Xanomeline High Dose","01-708-1216","ADSL","RACE","Race","WHITE",1,"",74,"","","","",""],[965,4,81,"Xanomeline High Dose","01-708-1213","ADSL","RACE","Race","WHITE",1,"",74,"","","","",""],[966,4,81,"Xanomeline High Dose","01-705-1310","ADSL","RACE","Race","WHITE",1,"",74,"","","","",""],[967,4,81,"Xanomeline High Dose","01-704-1332","ADSL","RACE","Race","WHITE",1,"",74,"","","","",""],[968,4,81,"Xanomeline High Dose","01-704-1074","ADSL","RACE","Race","WHITE",1,"",74,"","","","",""],[969,4,81,"Xanomeline High Dose","01-704-1017","ADSL","RACE","Race","WHITE",1,"",74,"","","","",""],[970,4,81,"Xanomeline High Dose","01-703-1439","ADSL","RACE","Race","WHITE",1,"",74,"","","","",""],[971,4,81,"Xanomeline High Dose","01-703-1258","ADSL","RACE","Race","WHITE",1,"",74,"","","","",""],[972,4,81,"Xanomeline High Dose","01-701-1383","ADSL","RACE","Race","WHITE",1,"",74,"","","","",""],[973,4,81,"Xanomeline High Dose","01-701-1181","ADSL","RACE","Race","WHITE",1,"",74,"","","","",""],[974,4,81,"Xanomeline High Dose","01-701-1028","ADSL","RACE","Race","WHITE",1,"",74,"","","","",""],[975,4,81,"Xanomeline High Dose","01-704-1065","ADSL","RACE","Race","WHITE",1,"",74,"","","","",""],[976,4,81,"Xanomeline High Dose","01-709-1238","ADSL","RACE","Race","WHITE",1,"",74,"","","","",""],[977,4,81,"Xanomeline High Dose","01-708-1336","ADSL","RACE","Race","WHITE",1,"",74,"","","","",""],[978,4,81,"Xanomeline High Dose","01-708-1372","ADSL","RACE","Race","WHITE",1,"",74,"","","","",""],[979,4,81,"Xanomeline High Dose","01-701-1360","ADSL","RACE","Race","WHITE",1,"",74,"","","","",""],[980,4,81,"Xanomeline High Dose","01-718-1328","ADSL","RACE","Race","WHITE",1,"",74,"","","","",""],[981,4,81,"Xanomeline High Dose","01-710-1354","ADSL","RACE","Race","WHITE",1,"",74,"","","","",""],[982,4,81,"Xanomeline High Dose","01-710-1278","ADSL","RACE","Race","WHITE",1,"",74,"","","","",""],[983,4,81,"Xanomeline High Dose","01-716-1189","ADSL","RACE","Race","WHITE",1,"",74,"","","","",""],[984,4,81,"Xanomeline High Dose","01-708-1347","ADSL","RACE","Race","WHITE",1,"",74,"","","","",""],[985,4,81,"Xanomeline High Dose","01-716-1373","ADSL","RACE","Race","WHITE",1,"",74,"","","","",""],[986,4,81,"Xanomeline High Dose","01-703-1076","ADSL","RACE","Race","WHITE",1,"",74,"","","","",""],[987,4,81,"Xanomeline High Dose","01-716-1071","ADSL","RACE","Race","WHITE",1,"",74,"","","","",""],[988,4,81,"Xanomeline High Dose","01-715-1319","ADSL","RACE","Race","WHITE",1,"",74,"","","","",""],[989,4,81,"Xanomeline High Dose","01-703-1403","ADSL","RACE","Race","WHITE",1,"",74,"","","","",""],[990,4,81,"Xanomeline High Dose","01-710-1006","ADSL","RACE","Race","WHITE",1,"",74,"","","","",""],[991,4,81,"Xanomeline High Dose","01-708-1236","ADSL","RACE","Race","WHITE",1,"",74,"","","","",""],[992,4,81,"Xanomeline High Dose","01-709-1029","ADSL","RACE","Race","WHITE",1,"",74,"","","","",""],[993,4,81,"Xanomeline High Dose","01-701-1148","ADSL","RACE","Race","WHITE",1,"",74,"","","","",""],[994,4,81,"Xanomeline High Dose","01-704-1266","ADSL","RACE","Race","WHITE",1,"",74,"","","","",""],[995,4,81,"Xanomeline High Dose","01-714-1425","ADSL","RACE","Race","WHITE",1,"",74,"","","","",""],[996,4,81,"Xanomeline High Dose","01-708-1406","ADSL","RACE","Race","WHITE",1,"",74,"","","","",""],[997,4,81,"Xanomeline High Dose","01-701-1302","ADSL","RACE","Race","WHITE",1,"",74,"","","","",""],[998,4,81,"Xanomeline High Dose","01-717-1357","ADSL","RACE","Race","WHITE",1,"",74,"","","","",""],[999,4,81,"Xanomeline High Dose","01-706-1049","ADSL","RACE","Race","WHITE",1,"",74,"","","","",""],[1000,4,81,"Xanomeline High Dose","01-717-1109","ADSL","RACE","Race","WHITE",1,"",74,"","","","",""],[1001,4,81,"Xanomeline High Dose","01-705-1303","ADSL","RACE","Race","WHITE",1,"",74,"","","","",""],[1002,4,81,"Xanomeline High Dose","01-716-1447","ADSL","RACE","Race","WHITE",1,"",74,"","","","",""],[1003,4,81,"Xanomeline High Dose","01-704-1008","ADSL","RACE","Race","WHITE",1,"",74,"","","","",""],[1004,4,81,"Xanomeline High Dose","01-704-1093","ADSL","RACE","Race","WHITE",1,"",74,"","","","",""],[1005,4,81,"Xanomeline High Dose","01-701-1146","ADSL","RACE","Race","WHITE",1,"",74,"","","","",""],[1006,4,81,"Xanomeline High Dose","01-701-1034","ADSL","RACE","Race","WHITE",1,"",74,"","","","",""],[1007,4,81,"Xanomeline High Dose","01-705-1377","ADSL","RACE","Race","BLACK OR AFRICAN AMERICAN",2,"",9,"","","","",""],[1008,4,81,"Xanomeline High Dose","01-714-1288","ADSL","RACE","Race","BLACK OR AFRICAN AMERICAN",2,"",9,"","","","",""],[1009,4,81,"Xanomeline High Dose","01-705-1281","ADSL","RACE","Race","BLACK OR AFRICAN AMERICAN",2,"",9,"","","","",""],[1010,4,81,"Xanomeline High Dose","01-703-1335","ADSL","RACE","Race","BLACK OR AFRICAN AMERICAN",2,"",9,"","","","",""],[1011,4,81,"Xanomeline High Dose","01-718-1101","ADSL","RACE","Race","BLACK OR AFRICAN AMERICAN",2,"",9,"","","","",""],[1012,4,81,"Xanomeline High Dose","01-718-1427","ADSL","RACE","Race","BLACK OR AFRICAN AMERICAN",2,"",9,"","","","",""],[1013,4,81,"Xanomeline High Dose","01-708-1178","ADSL","RACE","Race","BLACK OR AFRICAN AMERICAN",2,"",9,"","","","",""],[1014,4,81,"Xanomeline High Dose","01-710-1137","ADSL","RACE","Race","BLACK OR AFRICAN AMERICAN",2,"",9,"","","","",""],[1015,4,81,"Xanomeline High Dose","01-710-1021","ADSL","RACE","Race","BLACK OR AFRICAN AMERICAN",2,"",9,"","","","",""],[1016,4,81,"Xanomeline High Dose","01-701-1275","ADSL","RACE","Race","AMERICAN INDIAN OR ALASKA NATIVE",6,"",1,"","","","",""],[1017,5,0,"Placebo","01-710-1314","ADSL","HEIGHTBL","Baseline Height (cm)","",137.2,"",null,"162.57","11.52","162.60","137.20","185.40"],[1018,5,0,"Placebo","01-716-1108","ADSL","HEIGHTBL","Baseline Height (cm)","",142.2,"",null,"162.57","11.52","162.60","137.20","185.40"],[1019,5,0,"Placebo","01-705-1186","ADSL","HEIGHTBL","Baseline Height (cm)","",142.2,"",null,"162.57","11.52","162.60","137.20","185.40"],[1020,5,0,"Placebo","01-716-1441","ADSL","HEIGHTBL","Baseline Height (cm)","",144.8,"",null,"162.57","11.52","162.60","137.20","185.40"],[1021,5,0,"Placebo","01-705-1349","ADSL","HEIGHTBL","Baseline Height (cm)","",144.8,"",null,"162.57","11.52","162.60","137.20","185.40"],[1022,5,0,"Placebo","01-703-1210","ADSL","HEIGHTBL","Baseline Height (cm)","",144.8,"",null,"162.57","11.52","162.60","137.20","185.40"],[1023,5,0,"Placebo","01-709-1301","ADSL","HEIGHTBL","Baseline Height (cm)","",146.1,"",null,"162.57","11.52","162.60","137.20","185.40"],[1024,5,0,"Placebo","01-710-1368","ADSL","HEIGHTBL","Baseline Height (cm)","",147.3,"",null,"162.57","11.52","162.60","137.20","185.40"],[1025,5,0,"Placebo","01-704-1233","ADSL","HEIGHTBL","Baseline Height (cm)","",147.3,"",null,"162.57","11.52","162.60","137.20","185.40"],[1026,5,0,"Placebo","01-701-1015","ADSL","HEIGHTBL","Baseline Height (cm)","",147.3,"",null,"162.57","11.52","162.60","137.20","185.40"],[1027,5,0,"Placebo","01-705-1018","ADSL","HEIGHTBL","Baseline Height (cm)","",147.3,"",null,"162.57","11.52","162.60","137.20","185.40"],[1028,5,0,"Placebo","01-714-1035","ADSL","HEIGHTBL","Baseline Height (cm)","",148.6,"",null,"162.57","11.52","162.60","137.20","185.40"],[1029,5,0,"Placebo","01-701-1047","ADSL","HEIGHTBL","Baseline Height (cm)","",148.6,"",null,"162.57","11.52","162.60","137.20","185.40"],[1030,5,0,"Placebo","01-710-1271","ADSL","HEIGHTBL","Baseline Height (cm)","",149.9,"",null,"162.57","11.52","162.60","137.20","185.40"],[1031,5,0,"Placebo","01-714-1375","ADSL","HEIGHTBL","Baseline Height (cm)","",149.9,"",null,"162.57","11.52","162.60","137.20","185.40"],[1032,5,0,"Placebo","01-710-1183","ADSL","HEIGHTBL","Baseline Height (cm)","",149.9,"",null,"162.57","11.52","162.60","137.20","185.40"],[1033,5,0,"Placebo","01-710-1315","ADSL","HEIGHTBL","Baseline Height (cm)","",152.4,"",null,"162.57","11.52","162.60","137.20","185.40"],[1034,5,0,"Placebo","01-710-1078","ADSL","HEIGHTBL","Baseline Height (cm)","",152.4,"",null,"162.57","11.52","162.60","137.20","185.40"],[1035,5,0,"Placebo","01-715-1397","ADSL","HEIGHTBL","Baseline Height (cm)","",152.4,"",null,"162.57","11.52","162.60","137.20","185.40"],[1036,5,0,"Placebo","01-715-1207","ADSL","HEIGHTBL","Baseline Height (cm)","",152.4,"",null,"162.57","11.52","162.60","137.20","185.40"],[1037,5,0,"Placebo","01-708-1286","ADSL","HEIGHTBL","Baseline Height (cm)","",152.4,"",null,"162.57","11.52","162.60","137.20","185.40"],[1038,5,0,"Placebo","01-703-1299","ADSL","HEIGHTBL","Baseline Height (cm)","",153.7,"",null,"162.57","11.52","162.60","137.20","185.40"],[1039,5,0,"Placebo","01-716-1024","ADSL","HEIGHTBL","Baseline Height (cm)","",154.9,"",null,"162.57","11.52","162.60","137.20","185.40"],[1040,5,0,"Placebo","01-709-1306","ADSL","HEIGHTBL","Baseline Height (cm)","",154.9,"",null,"162.57","11.52","162.60","137.20","185.40"],[1041,5,0,"Placebo","01-716-1026","ADSL","HEIGHTBL","Baseline Height (cm)","",154.9,"",null,"162.57","11.52","162.60","137.20","185.40"],[1042,5,0,"Placebo","01-705-1282","ADSL","HEIGHTBL","Baseline Height (cm)","",154.9,"",null,"162.57","11.52","162.60","137.20","185.40"],[1043,5,0,"Placebo","01-718-1150","ADSL","HEIGHTBL","Baseline Height (cm)","",156.2,"",null,"162.57","11.52","162.60","137.20","185.40"],[1044,5,0,"Placebo","01-701-1440","ADSL","HEIGHTBL","Baseline Height (cm)","",156.2,"",null,"162.57","11.52","162.60","137.20","185.40"],[1045,5,0,"Placebo","01-701-1153","ADSL","HEIGHTBL","Baseline Height (cm)","",156.2,"",null,"162.57","11.52","162.60","137.20","185.40"],[1046,5,0,"Placebo","01-716-1160","ADSL","HEIGHTBL","Baseline Height (cm)","",157.5,"",null,"162.57","11.52","162.60","137.20","185.40"],[1047,5,0,"Placebo","01-710-1083","ADSL","HEIGHTBL","Baseline Height (cm)","",157.5,"",null,"162.57","11.52","162.60","137.20","185.40"],[1048,5,0,"Placebo","01-716-1308","ADSL","HEIGHTBL","Baseline Height (cm)","",157.5,"",null,"162.57","11.52","162.60","137.20","185.40"],[1049,5,0,"Placebo","01-708-1087","ADSL","HEIGHTBL","Baseline Height (cm)","",157.5,"",null,"162.57","11.52","162.60","137.20","185.40"],[1050,5,0,"Placebo","01-704-1164","ADSL","HEIGHTBL","Baseline Height (cm)","",157.5,"",null,"162.57","11.52","162.60","137.20","185.40"],[1051,5,0,"Placebo","01-717-1201","ADSL","HEIGHTBL","Baseline Height (cm)","",160,"",null,"162.57","11.52","162.60","137.20","185.40"],[1052,5,0,"Placebo","01-703-1096","ADSL","HEIGHTBL","Baseline Height (cm)","",160,"",null,"162.57","11.52","162.60","137.20","185.40"],[1053,5,0,"Placebo","01-709-1312","ADSL","HEIGHTBL","Baseline Height (cm)","",160,"",null,"162.57","11.52","162.60","137.20","185.40"],[1054,5,0,"Placebo","01-708-1316","ADSL","HEIGHTBL","Baseline Height (cm)","",160,"",null,"162.57","11.52","162.60","137.20","185.40"],[1055,5,0,"Placebo","01-704-1260","ADSL","HEIGHTBL","Baseline Height (cm)","",160,"",null,"162.57","11.52","162.60","137.20","185.40"],[1056,5,0,"Placebo","01-701-1203","ADSL","HEIGHTBL","Baseline Height (cm)","",160,"",null,"162.57","11.52","162.60","137.20","185.40"],[1057,5,0,"Placebo","01-701-1363","ADSL","HEIGHTBL","Baseline Height (cm)","",161.3,"",null,"162.57","11.52","162.60","137.20","185.40"],[1058,5,0,"Placebo","01-708-1158","ADSL","HEIGHTBL","Baseline Height (cm)","",162.6,"",null,"162.57","11.52","162.60","137.20","185.40"],[1059,5,0,"Placebo","01-701-1387","ADSL","HEIGHTBL","Baseline Height (cm)","",162.6,"",null,"162.57","11.52","162.60","137.20","185.40"],[1060,5,0,"Placebo","01-701-1023","ADSL","HEIGHTBL","Baseline Height (cm)","",162.6,"",null,"162.57","11.52","162.60","137.20","185.40"],[1061,5,0,"Placebo","01-710-1077","ADSL","HEIGHTBL","Baseline Height (cm)","",162.6,"",null,"162.57","11.52","162.60","137.20","185.40"],[1062,5,0,"Placebo","01-708-1171","ADSL","HEIGHTBL","Baseline Height (cm)","",162.6,"",null,"162.57","11.52","162.60","137.20","185.40"],[1063,5,0,"Placebo","01-705-1059","ADSL","HEIGHTBL","Baseline Height (cm)","",162.6,"",null,"162.57","11.52","162.60","137.20","185.40"],[1064,5,0,"Placebo","01-717-1344","ADSL","HEIGHTBL","Baseline Height (cm)","",163.5,"",null,"162.57","11.52","162.60","137.20","185.40"],[1065,5,0,"Placebo","01-704-1127","ADSL","HEIGHTBL","Baseline Height (cm)","",165.1,"",null,"162.57","11.52","162.60","137.20","185.40"],[1066,5,0,"Placebo","01-715-1155","ADSL","HEIGHTBL","Baseline Height (cm)","",165.1,"",null,"162.57","11.52","162.60","137.20","185.40"],[1067,5,0,"Placebo","01-713-1179","ADSL","HEIGHTBL","Baseline Height (cm)","",165.1,"",null,"162.57","11.52","162.60","137.20","185.40"],[1068,5,0,"Placebo","01-703-1100","ADSL","HEIGHTBL","Baseline Height (cm)","",167.6,"",null,"162.57","11.52","162.60","137.20","185.40"],[1069,5,0,"Placebo","01-718-1355","ADSL","HEIGHTBL","Baseline Height (cm)","",167.6,"",null,"162.57","11.52","162.60","137.20","185.40"],[1070,5,0,"Placebo","01-710-1264","ADSL","HEIGHTBL","Baseline Height (cm)","",167.6,"",null,"162.57","11.52","162.60","137.20","185.40"],[1071,5,0,"Placebo","01-704-1435","ADSL","HEIGHTBL","Baseline Height (cm)","",167.6,"",null,"162.57","11.52","162.60","137.20","185.40"],[1072,5,0,"Placebo","01-701-1392","ADSL","HEIGHTBL","Baseline Height (cm)","",167.6,"",null,"162.57","11.52","162.60","137.20","185.40"],[1073,5,0,"Placebo","01-706-1041","ADSL","HEIGHTBL","Baseline Height (cm)","",167.6,"",null,"162.57","11.52","162.60","137.20","185.40"],[1074,5,0,"Placebo","01-701-1130","ADSL","HEIGHTBL","Baseline Height (cm)","",169.7,"",null,"162.57","11.52","162.60","137.20","185.40"],[1075,5,0,"Placebo","01-710-1027","ADSL","HEIGHTBL","Baseline Height (cm)","",170.2,"",null,"162.57","11.52","162.60","137.20","185.40"],[1076,5,0,"Placebo","01-708-1342","ADSL","HEIGHTBL","Baseline Height (cm)","",170.2,"",null,"162.57","11.52","162.60","137.20","185.40"],[1077,5,0,"Placebo","01-709-1001","ADSL","HEIGHTBL","Baseline Height (cm)","",170.2,"",null,"162.57","11.52","162.60","137.20","185.40"],[1078,5,0,"Placebo","01-703-1175","ADSL","HEIGHTBL","Baseline Height (cm)","",170.2,"",null,"162.57","11.52","162.60","137.20","185.40"],[1079,5,0,"Placebo","01-708-1296","ADSL","HEIGHTBL","Baseline Height (cm)","",170.2,"",null,"162.57","11.52","162.60","137.20","185.40"],[1080,5,0,"Placebo","01-708-1378","ADSL","HEIGHTBL","Baseline Height (cm)","",170.2,"",null,"162.57","11.52","162.60","137.20","185.40"],[1081,5,0,"Placebo","01-718-1139","ADSL","HEIGHTBL","Baseline Height (cm)","",171.5,"",null,"162.57","11.52","162.60","137.20","185.40"],[1082,5,0,"Placebo","01-711-1036","ADSL","HEIGHTBL","Baseline Height (cm)","",172,"",null,"162.57","11.52","162.60","137.20","185.40"],[1083,5,0,"Placebo","01-709-1259","ADSL","HEIGHTBL","Baseline Height (cm)","",172.7,"",null,"162.57","11.52","162.60","137.20","185.40"],[1084,5,0,"Placebo","01-716-1044","ADSL","HEIGHTBL","Baseline Height (cm)","",172.7,"",null,"162.57","11.52","162.60","137.20","185.40"],[1085,5,0,"Placebo","01-701-1345","ADSL","HEIGHTBL","Baseline Height (cm)","",174,"",null,"162.57","11.52","162.60","137.20","185.40"],[1086,5,0,"Placebo","01-718-1172","ADSL","HEIGHTBL","Baseline Height (cm)","",174,"",null,"162.57","11.52","162.60","137.20","185.40"],[1087,5,0,"Placebo","01-707-1206","ADSL","HEIGHTBL","Baseline Height (cm)","",174,"",null,"162.57","11.52","162.60","137.20","185.40"],[1088,5,0,"Placebo","01-709-1339","ADSL","HEIGHTBL","Baseline Height (cm)","",175.3,"",null,"162.57","11.52","162.60","137.20","185.40"],[1089,5,0,"Placebo","01-701-1415","ADSL","HEIGHTBL","Baseline Height (cm)","",175.3,"",null,"162.57","11.52","162.60","137.20","185.40"],[1090,5,0,"Placebo","01-704-1351","ADSL","HEIGHTBL","Baseline Height (cm)","",175.3,"",null,"162.57","11.52","162.60","137.20","185.40"],[1091,5,0,"Placebo","01-704-1388","ADSL","HEIGHTBL","Baseline Height (cm)","",176.5,"",null,"162.57","11.52","162.60","137.20","185.40"],[1092,5,0,"Placebo","01-703-1042","ADSL","HEIGHTBL","Baseline Height (cm)","",177.8,"",null,"162.57","11.52","162.60","137.20","185.40"],[1093,5,0,"Placebo","01-716-1177","ADSL","HEIGHTBL","Baseline Height (cm)","",177.8,"",null,"162.57","11.52","162.60","137.20","185.40"],[1094,5,0,"Placebo","01-704-1445","ADSL","HEIGHTBL","Baseline Height (cm)","",177.8,"",null,"162.57","11.52","162.60","137.20","185.40"],[1095,5,0,"Placebo","01-704-1010","ADSL","HEIGHTBL","Baseline Height (cm)","",177.8,"",null,"162.57","11.52","162.60","137.20","185.40"],[1096,5,0,"Placebo","01-709-1088","ADSL","HEIGHTBL","Baseline Height (cm)","",179.1,"",null,"162.57","11.52","162.60","137.20","185.40"],[1097,5,0,"Placebo","01-701-1118","ADSL","HEIGHTBL","Baseline Height (cm)","",180.3,"",null,"162.57","11.52","162.60","137.20","185.40"],[1098,5,0,"Placebo","01-713-1256","ADSL","HEIGHTBL","Baseline Height (cm)","",180.3,"",null,"162.57","11.52","162.60","137.20","185.40"],[1099,5,0,"Placebo","01-701-1234","ADSL","HEIGHTBL","Baseline Height (cm)","",181.6,"",null,"162.57","11.52","162.60","137.20","185.40"],[1100,5,0,"Placebo","01-710-1060","ADSL","HEIGHTBL","Baseline Height (cm)","",182.9,"",null,"162.57","11.52","162.60","137.20","185.40"],[1101,5,0,"Placebo","01-708-1253","ADSL","HEIGHTBL","Baseline Height (cm)","",185.4,"",null,"162.57","11.52","162.60","137.20","185.40"],[1102,5,0,"Placebo","01-713-1269","ADSL","HEIGHTBL","Baseline Height (cm)","",185.4,"",null,"162.57","11.52","162.60","137.20","185.40"],[1103,5,54,"Xanomeline Low Dose","01-717-1004","ADSL","HEIGHTBL","Baseline Height (cm)","",135.9,"",null,"163.43","10.42","162.60","135.90","195.60"],[1104,5,54,"Xanomeline Low Dose","01-704-1218","ADSL","HEIGHTBL","Baseline Height (cm)","",144,"",null,"163.43","10.42","162.60","135.90","195.60"],[1105,5,54,"Xanomeline Low Dose","01-709-1020","ADSL","HEIGHTBL","Baseline Height (cm)","",144.8,"",null,"163.43","10.42","162.60","135.90","195.60"],[1106,5,54,"Xanomeline Low Dose","01-705-1393","ADSL","HEIGHTBL","Baseline Height (cm)","",144.8,"",null,"163.43","10.42","162.60","135.90","195.60"],[1107,5,54,"Xanomeline Low Dose","01-704-1120","ADSL","HEIGHTBL","Baseline Height (cm)","",147,"",null,"163.43","10.42","162.60","135.90","195.60"],[1108,5,54,"Xanomeline Low Dose","01-701-1429","ADSL","HEIGHTBL","Baseline Height (cm)","",148.6,"",null,"163.43","10.42","162.60","135.90","195.60"],[1109,5,54,"Xanomeline Low Dose","01-705-1431","ADSL","HEIGHTBL","Baseline Height (cm)","",149.9,"",null,"163.43","10.42","162.60","135.90","195.60"],[1110,5,54,"Xanomeline Low Dose","01-710-1270","ADSL","HEIGHTBL","Baseline Height (cm)","",149.9,"",null,"163.43","10.42","162.60","135.90","195.60"],[1111,5,54,"Xanomeline Low Dose","01-701-1192","ADSL","HEIGHTBL","Baseline Height (cm)","",151.1,"",null,"163.43","10.42","162.60","135.90","195.60"],[1112,5,54,"Xanomeline Low Dose","01-716-1151","ADSL","HEIGHTBL","Baseline Height (cm)","",152.4,"",null,"163.43","10.42","162.60","135.90","195.60"],[1113,5,54,"Xanomeline Low Dose","01-710-1300","ADSL","HEIGHTBL","Baseline Height (cm)","",152.4,"",null,"163.43","10.42","162.60","135.90","195.60"],[1114,5,54,"Xanomeline Low Dose","01-707-1037","ADSL","HEIGHTBL","Baseline Height (cm)","",152.4,"",null,"163.43","10.42","162.60","135.90","195.60"],[1115,5,54,"Xanomeline Low Dose","01-714-1068","ADSL","HEIGHTBL","Baseline Height (cm)","",153.7,"",null,"163.43","10.42","162.60","135.90","195.60"],[1116,5,54,"Xanomeline Low Dose","01-709-1081","ADSL","HEIGHTBL","Baseline Height (cm)","",154.9,"",null,"163.43","10.42","162.60","135.90","195.60"],[1117,5,54,"Xanomeline Low Dose","01-702-1082","ADSL","HEIGHTBL","Baseline Height (cm)","",154.9,"",null,"163.43","10.42","162.60","135.90","195.60"],[1118,5,54,"Xanomeline Low Dose","01-717-1446","ADSL","HEIGHTBL","Baseline Height (cm)","",156.2,"",null,"163.43","10.42","162.60","135.90","195.60"],[1119,5,54,"Xanomeline Low Dose","01-716-1298","ADSL","HEIGHTBL","Baseline Height (cm)","",156.2,"",null,"163.43","10.42","162.60","135.90","195.60"],[1120,5,54,"Xanomeline Low Dose","01-706-1384","ADSL","HEIGHTBL","Baseline Height (cm)","",157.5,"",null,"163.43","10.42","162.60","135.90","195.60"],[1121,5,54,"Xanomeline Low Dose","01-708-1353","ADSL","HEIGHTBL","Baseline Height (cm)","",157.5,"",null,"163.43","10.42","162.60","135.90","195.60"],[1122,5,54,"Xanomeline Low Dose","01-703-1379","ADSL","HEIGHTBL","Baseline Height (cm)","",157.5,"",null,"163.43","10.42","162.60","135.90","195.60"],[1123,5,54,"Xanomeline Low Dose","01-710-1053","ADSL","HEIGHTBL","Baseline Height (cm)","",157.5,"",null,"163.43","10.42","162.60","135.90","195.60"],[1124,5,54,"Xanomeline Low Dose","01-708-1428","ADSL","HEIGHTBL","Baseline Height (cm)","",157.5,"",null,"163.43","10.42","162.60","135.90","195.60"],[1125,5,54,"Xanomeline Low Dose","01-705-1031","ADSL","HEIGHTBL","Baseline Height (cm)","",157.5,"",null,"163.43","10.42","162.60","135.90","195.60"],[1126,5,54,"Xanomeline Low Dose","01-710-1166","ADSL","HEIGHTBL","Baseline Height (cm)","",157.5,"",null,"163.43","10.42","162.60","135.90","195.60"],[1127,5,54,"Xanomeline Low Dose","01-718-1250","ADSL","HEIGHTBL","Baseline Height (cm)","",157.5,"",null,"163.43","10.42","162.60","135.90","195.60"],[1128,5,54,"Xanomeline Low Dose","01-701-1341","ADSL","HEIGHTBL","Baseline Height (cm)","",157.5,"",null,"163.43","10.42","162.60","135.90","195.60"],[1129,5,54,"Xanomeline Low Dose","01-701-1111","ADSL","HEIGHTBL","Baseline Height (cm)","",158.2,"",null,"163.43","10.42","162.60","135.90","195.60"],[1130,5,54,"Xanomeline Low Dose","01-718-1066","ADSL","HEIGHTBL","Baseline Height (cm)","",158.8,"",null,"163.43","10.42","162.60","135.90","195.60"],[1131,5,54,"Xanomeline Low Dose","01-716-1167","ADSL","HEIGHTBL","Baseline Height (cm)","",158.8,"",null,"163.43","10.42","162.60","135.90","195.60"],[1132,5,54,"Xanomeline Low Dose","01-718-1079","ADSL","HEIGHTBL","Baseline Height (cm)","",158.8,"",null,"163.43","10.42","162.60","135.90","195.60"],[1133,5,54,"Xanomeline Low Dose","01-709-1007","ADSL","HEIGHTBL","Baseline Height (cm)","",158.8,"",null,"163.43","10.42","162.60","135.90","195.60"],[1134,5,54,"Xanomeline Low Dose","01-716-1157","ADSL","HEIGHTBL","Baseline Height (cm)","",160,"",null,"163.43","10.42","162.60","135.90","195.60"],[1135,5,54,"Xanomeline Low Dose","01-710-1154","ADSL","HEIGHTBL","Baseline Height (cm)","",160,"",null,"163.43","10.42","162.60","135.90","195.60"],[1136,5,54,"Xanomeline Low Dose","01-716-1063","ADSL","HEIGHTBL","Baseline Height (cm)","",160,"",null,"163.43","10.42","162.60","135.90","195.60"],[1137,5,54,"Xanomeline Low Dose","01-708-1348","ADSL","HEIGHTBL","Baseline Height (cm)","",160,"",null,"163.43","10.42","162.60","135.90","195.60"],[1138,5,54,"Xanomeline Low Dose","01-701-1211","ADSL","HEIGHTBL","Baseline Height (cm)","",160,"",null,"163.43","10.42","162.60","135.90","195.60"],[1139,5,54,"Xanomeline Low Dose","01-703-1119","ADSL","HEIGHTBL","Baseline Height (cm)","",160,"",null,"163.43","10.42","162.60","135.90","195.60"],[1140,5,54,"Xanomeline Low Dose","01-709-1326","ADSL","HEIGHTBL","Baseline Height (cm)","",161.3,"",null,"163.43","10.42","162.60","135.90","195.60"],[1141,5,54,"Xanomeline Low Dose","01-705-1199","ADSL","HEIGHTBL","Baseline Height (cm)","",161.3,"",null,"163.43","10.42","162.60","135.90","195.60"],[1142,5,54,"Xanomeline Low Dose","01-704-1135","ADSL","HEIGHTBL","Baseline Height (cm)","",161.8,"",null,"163.43","10.42","162.60","135.90","195.60"],[1143,5,54,"Xanomeline Low Dose","01-718-1170","ADSL","HEIGHTBL","Baseline Height (cm)","",162.6,"",null,"163.43","10.42","162.60","135.90","195.60"],[1144,5,54,"Xanomeline Low Dose","01-715-1085","ADSL","HEIGHTBL","Baseline Height (cm)","",162.6,"",null,"163.43","10.42","162.60","135.90","195.60"],[1145,5,54,"Xanomeline Low Dose","01-704-1323","ADSL","HEIGHTBL","Baseline Height (cm)","",162.6,"",null,"163.43","10.42","162.60","135.90","195.60"],[1146,5,54,"Xanomeline Low Dose","01-703-1279","ADSL","HEIGHTBL","Baseline Height (cm)","",162.6,"",null,"163.43","10.42","162.60","135.90","195.60"],[1147,5,54,"Xanomeline Low Dose","01-701-1442","ADSL","HEIGHTBL","Baseline Height (cm)","",162.6,"",null,"163.43","10.42","162.60","135.90","195.60"],[1148,5,54,"Xanomeline Low Dose","01-703-1197","ADSL","HEIGHTBL","Baseline Height (cm)","",162.6,"",null,"163.43","10.42","162.60","135.90","195.60"],[1149,5,54,"Xanomeline Low Dose","01-710-1045","ADSL","HEIGHTBL","Baseline Height (cm)","",162.6,"",null,"163.43","10.42","162.60","135.90","195.60"],[1150,5,54,"Xanomeline Low Dose","01-710-1358","ADSL","HEIGHTBL","Baseline Height (cm)","",162.6,"",null,"163.43","10.42","162.60","135.90","195.60"],[1151,5,54,"Xanomeline Low Dose","01-711-1143","ADSL","HEIGHTBL","Baseline Height (cm)","",163.1,"",null,"163.43","10.42","162.60","135.90","195.60"],[1152,5,54,"Xanomeline Low Dose","01-716-1103","ADSL","HEIGHTBL","Baseline Height (cm)","",165.1,"",null,"163.43","10.42","162.60","135.90","195.60"],[1153,5,54,"Xanomeline Low Dose","01-713-1043","ADSL","HEIGHTBL","Baseline Height (cm)","",165.1,"",null,"163.43","10.42","162.60","135.90","195.60"],[1154,5,54,"Xanomeline Low Dose","01-710-1002","ADSL","HEIGHTBL","Baseline Height (cm)","",165.1,"",null,"163.43","10.42","162.60","135.90","195.60"],[1155,5,54,"Xanomeline Low Dose","01-704-1025","ADSL","HEIGHTBL","Baseline Height (cm)","",166,"",null,"163.43","10.42","162.60","135.90","195.60"],[1156,5,54,"Xanomeline Low Dose","01-709-1102","ADSL","HEIGHTBL","Baseline Height (cm)","",166.4,"",null,"163.43","10.42","162.60","135.90","195.60"],[1157,5,54,"Xanomeline Low Dose","01-704-1114","ADSL","HEIGHTBL","Baseline Height (cm)","",166.4,"",null,"163.43","10.42","162.60","135.90","195.60"],[1158,5,54,"Xanomeline Low Dose","01-701-1324","ADSL","HEIGHTBL","Baseline Height (cm)","",166.4,"",null,"163.43","10.42","162.60","135.90","195.60"],[1159,5,54,"Xanomeline Low Dose","01-708-1084","ADSL","HEIGHTBL","Baseline Height (cm)","",167.6,"",null,"163.43","10.42","162.60","135.90","195.60"],[1160,5,54,"Xanomeline Low Dose","01-705-1292","ADSL","HEIGHTBL","Baseline Height (cm)","",167.6,"",null,"163.43","10.42","162.60","135.90","195.60"],[1161,5,54,"Xanomeline Low Dose","01-713-1073","ADSL","HEIGHTBL","Baseline Height (cm)","",167.6,"",null,"163.43","10.42","162.60","135.90","195.60"],[1162,5,54,"Xanomeline Low Dose","01-709-1285","ADSL","HEIGHTBL","Baseline Height (cm)","",167.6,"",null,"163.43","10.42","162.60","135.90","195.60"],[1163,5,54,"Xanomeline Low Dose","01-701-1097","ADSL","HEIGHTBL","Baseline Height (cm)","",168.9,"",null,"163.43","10.42","162.60","135.90","195.60"],[1164,5,54,"Xanomeline Low Dose","01-716-1094","ADSL","HEIGHTBL","Baseline Height (cm)","",168.9,"",null,"163.43","10.42","162.60","135.90","195.60"],[1165,5,54,"Xanomeline Low Dose","01-701-1294","ADSL","HEIGHTBL","Baseline Height (cm)","",170.2,"",null,"163.43","10.42","162.60","135.90","195.60"],[1166,5,54,"Xanomeline Low Dose","01-710-1235","ADSL","HEIGHTBL","Baseline Height (cm)","",170.2,"",null,"163.43","10.42","162.60","135.90","195.60"],[1167,5,54,"Xanomeline Low Dose","01-718-1254","ADSL","HEIGHTBL","Baseline Height (cm)","",170.2,"",null,"163.43","10.42","162.60","135.90","195.60"],[1168,5,54,"Xanomeline Low Dose","01-709-1217","ADSL","HEIGHTBL","Baseline Height (cm)","",171.5,"",null,"163.43","10.42","162.60","135.90","195.60"],[1169,5,54,"Xanomeline Low Dose","01-715-1107","ADSL","HEIGHTBL","Baseline Height (cm)","",172.7,"",null,"163.43","10.42","162.60","135.90","195.60"],[1170,5,54,"Xanomeline Low Dose","01-714-1195","ADSL","HEIGHTBL","Baseline Height (cm)","",172.7,"",null,"163.43","10.42","162.60","135.90","195.60"],[1171,5,54,"Xanomeline Low Dose","01-703-1182","ADSL","HEIGHTBL","Baseline Height (cm)","",172.7,"",null,"163.43","10.42","162.60","135.90","195.60"],[1172,5,54,"Xanomeline Low Dose","01-708-1272","ADSL","HEIGHTBL","Baseline Height (cm)","",172.7,"",null,"163.43","10.42","162.60","135.90","195.60"],[1173,5,54,"Xanomeline Low Dose","01-716-1311","ADSL","HEIGHTBL","Baseline Height (cm)","",172.7,"",null,"163.43","10.42","162.60","135.90","195.60"],[1174,5,54,"Xanomeline Low Dose","01-713-1448","ADSL","HEIGHTBL","Baseline Height (cm)","",175.3,"",null,"163.43","10.42","162.60","135.90","195.60"],[1175,5,54,"Xanomeline Low Dose","01-701-1033","ADSL","HEIGHTBL","Baseline Height (cm)","",175.3,"",null,"163.43","10.42","162.60","135.90","195.60"],[1176,5,54,"Xanomeline Low Dose","01-704-1325","ADSL","HEIGHTBL","Baseline Height (cm)","",175.3,"",null,"163.43","10.42","162.60","135.90","195.60"],[1177,5,54,"Xanomeline Low Dose","01-701-1317","ADSL","HEIGHTBL","Baseline Height (cm)","",176.5,"",null,"163.43","10.42","162.60","135.90","195.60"],[1178,5,54,"Xanomeline Low Dose","01-701-1188","ADSL","HEIGHTBL","Baseline Height (cm)","",177.8,"",null,"163.43","10.42","162.60","135.90","195.60"],[1179,5,54,"Xanomeline Low Dose","01-708-1032","ADSL","HEIGHTBL","Baseline Height (cm)","",177.8,"",null,"163.43","10.42","162.60","135.90","195.60"],[1180,5,54,"Xanomeline Low Dose","01-704-1009","ADSL","HEIGHTBL","Baseline Height (cm)","",179.1,"",null,"163.43","10.42","162.60","135.90","195.60"],[1181,5,54,"Xanomeline Low Dose","01-715-1405","ADSL","HEIGHTBL","Baseline Height (cm)","",180.3,"",null,"163.43","10.42","162.60","135.90","195.60"],[1182,5,54,"Xanomeline Low Dose","01-701-1115","ADSL","HEIGHTBL","Baseline Height (cm)","",181.6,"",null,"163.43","10.42","162.60","135.90","195.60"],[1183,5,54,"Xanomeline Low Dose","01-710-1385","ADSL","HEIGHTBL","Baseline Height (cm)","",182.9,"",null,"163.43","10.42","162.60","135.90","195.60"],[1184,5,54,"Xanomeline Low Dose","01-708-1019","ADSL","HEIGHTBL","Baseline Height (cm)","",182.9,"",null,"163.43","10.42","162.60","135.90","195.60"],[1185,5,54,"Xanomeline Low Dose","01-708-1297","ADSL","HEIGHTBL","Baseline Height (cm)","",185.4,"",null,"163.43","10.42","162.60","135.90","195.60"],[1186,5,54,"Xanomeline Low Dose","01-703-1086","ADSL","HEIGHTBL","Baseline Height (cm)","",195.6,"",null,"163.43","10.42","162.60","135.90","195.60"],[1187,5,81,"Xanomeline High Dose","01-705-1310","ADSL","HEIGHTBL","Baseline Height (cm)","",146.1,"",null,"165.82","10.13","165.10","146.10","190.50"],[1188,5,81,"Xanomeline High Dose","01-716-1373","ADSL","HEIGHTBL","Baseline Height (cm)","",147.3,"",null,"165.82","10.13","165.10","146.10","190.50"],[1189,5,81,"Xanomeline High Dose","01-701-1146","ADSL","HEIGHTBL","Baseline Height (cm)","",147.3,"",null,"165.82","10.13","165.10","146.10","190.50"],[1190,5,81,"Xanomeline High Dose","01-704-1008","ADSL","HEIGHTBL","Baseline Height (cm)","",148,"",null,"165.82","10.13","165.10","146.10","190.50"],[1191,5,81,"Xanomeline High Dose","01-716-1447","ADSL","HEIGHTBL","Baseline Height (cm)","",149.9,"",null,"165.82","10.13","165.10","146.10","190.50"],[1192,5,81,"Xanomeline High Dose","01-710-1070","ADSL","HEIGHTBL","Baseline Height (cm)","",149.9,"",null,"165.82","10.13","165.10","146.10","190.50"],[1193,5,81,"Xanomeline High Dose","01-709-1168","ADSL","HEIGHTBL","Baseline Height (cm)","",149.9,"",null,"165.82","10.13","165.10","146.10","190.50"],[1194,5,81,"Xanomeline High Dose","01-716-1030","ADSL","HEIGHTBL","Baseline Height (cm)","",150.6,"",null,"165.82","10.13","165.10","146.10","190.50"],[1195,5,81,"Xanomeline High Dose","01-708-1236","ADSL","HEIGHTBL","Baseline Height (cm)","",152.4,"",null,"165.82","10.13","165.10","146.10","190.50"],[1196,5,81,"Xanomeline High Dose","01-705-1281","ADSL","HEIGHTBL","Baseline Height (cm)","",152.4,"",null,"165.82","10.13","165.10","146.10","190.50"],[1197,5,81,"Xanomeline High Dose","01-710-1142","ADSL","HEIGHTBL","Baseline Height (cm)","",152.4,"",null,"165.82","10.13","165.10","146.10","190.50"],[1198,5,81,"Xanomeline High Dose","01-701-1181","ADSL","HEIGHTBL","Baseline Height (cm)","",154.9,"",null,"165.82","10.13","165.10","146.10","190.50"],[1199,5,81,"Xanomeline High Dose","01-703-1335","ADSL","HEIGHTBL","Baseline Height (cm)","",154.9,"",null,"165.82","10.13","165.10","146.10","190.50"],[1200,5,81,"Xanomeline High Dose","01-718-1371","ADSL","HEIGHTBL","Baseline Height (cm)","",154.9,"",null,"165.82","10.13","165.10","146.10","190.50"],[1201,5,81,"Xanomeline High Dose","01-716-1071","ADSL","HEIGHTBL","Baseline Height (cm)","",154.9,"",null,"165.82","10.13","165.10","146.10","190.50"],[1202,5,81,"Xanomeline High Dose","01-701-1287","ADSL","HEIGHTBL","Baseline Height (cm)","",154.9,"",null,"165.82","10.13","165.10","146.10","190.50"],[1203,5,81,"Xanomeline High Dose","01-703-1258","ADSL","HEIGHTBL","Baseline Height (cm)","",154.9,"",null,"165.82","10.13","165.10","146.10","190.50"],[1204,5,81,"Xanomeline High Dose","01-701-1034","ADSL","HEIGHTBL","Baseline Height (cm)","",154.9,"",null,"165.82","10.13","165.10","146.10","190.50"],[1205,5,81,"Xanomeline High Dose","01-710-1187","ADSL","HEIGHTBL","Baseline Height (cm)","",154.9,"",null,"165.82","10.13","165.10","146.10","190.50"],[1206,5,81,"Xanomeline High Dose","01-705-1280","ADSL","HEIGHTBL","Baseline Height (cm)","",157.5,"",null,"165.82","10.13","165.10","146.10","190.50"],[1207,5,81,"Xanomeline High Dose","01-711-1433","ADSL","HEIGHTBL","Baseline Height (cm)","",157.5,"",null,"165.82","10.13","165.10","146.10","190.50"],[1208,5,81,"Xanomeline High Dose","01-703-1295","ADSL","HEIGHTBL","Baseline Height (cm)","",157.5,"",null,"165.82","10.13","165.10","146.10","190.50"],[1209,5,81,"Xanomeline High Dose","01-708-1406","ADSL","HEIGHTBL","Baseline Height (cm)","",157.5,"",null,"165.82","10.13","165.10","146.10","190.50"],[1210,5,81,"Xanomeline High Dose","01-718-1427","ADSL","HEIGHTBL","Baseline Height (cm)","",158.8,"",null,"165.82","10.13","165.10","146.10","190.50"],[1211,5,81,"Xanomeline High Dose","01-708-1347","ADSL","HEIGHTBL","Baseline Height (cm)","",160,"",null,"165.82","10.13","165.10","146.10","190.50"],[1212,5,81,"Xanomeline High Dose","01-703-1439","ADSL","HEIGHTBL","Baseline Height (cm)","",160,"",null,"165.82","10.13","165.10","146.10","190.50"],[1213,5,81,"Xanomeline High Dose","01-716-1229","ADSL","HEIGHTBL","Baseline Height (cm)","",161.3,"",null,"165.82","10.13","165.10","146.10","190.50"],[1214,5,81,"Xanomeline High Dose","01-716-1364","ADSL","HEIGHTBL","Baseline Height (cm)","",162.6,"",null,"165.82","10.13","165.10","146.10","190.50"],[1215,5,81,"Xanomeline High Dose","01-715-1321","ADSL","HEIGHTBL","Baseline Height (cm)","",162.6,"",null,"165.82","10.13","165.10","146.10","190.50"],[1216,5,81,"Xanomeline High Dose","01-714-1288","ADSL","HEIGHTBL","Baseline Height (cm)","",162.6,"",null,"165.82","10.13","165.10","146.10","190.50"],[1217,5,81,"Xanomeline High Dose","01-701-1133","ADSL","HEIGHTBL","Baseline Height (cm)","",162.6,"",null,"165.82","10.13","165.10","146.10","190.50"],[1218,5,81,"Xanomeline High Dose","01-710-1021","ADSL","HEIGHTBL","Baseline Height (cm)","",162.6,"",null,"165.82","10.13","165.10","146.10","190.50"],[1219,5,81,"Xanomeline High Dose","01-716-1189","ADSL","HEIGHTBL","Baseline Height (cm)","",163.8,"",null,"165.82","10.13","165.10","146.10","190.50"],[1220,5,81,"Xanomeline High Dose","01-701-1383","ADSL","HEIGHTBL","Baseline Height (cm)","",163.8,"",null,"165.82","10.13","165.10","146.10","190.50"],[1221,5,81,"Xanomeline High Dose","01-713-1106","ADSL","HEIGHTBL","Baseline Height (cm)","",164.8,"",null,"165.82","10.13","165.10","146.10","190.50"],[1222,5,81,"Xanomeline High Dose","01-708-1178","ADSL","HEIGHTBL","Baseline Height (cm)","",165.1,"",null,"165.82","10.13","165.10","146.10","190.50"],[1223,5,81,"Xanomeline High Dose","01-716-1418","ADSL","HEIGHTBL","Baseline Height (cm)","",165.1,"",null,"165.82","10.13","165.10","146.10","190.50"],[1224,5,81,"Xanomeline High Dose","01-713-1209","ADSL","HEIGHTBL","Baseline Height (cm)","",165.1,"",null,"165.82","10.13","165.10","146.10","190.50"],[1225,5,81,"Xanomeline High Dose","01-709-1099","ADSL","HEIGHTBL","Baseline Height (cm)","",165.1,"",null,"165.82","10.13","165.10","146.10","190.50"],[1226,5,81,"Xanomeline High Dose","01-703-1076","ADSL","HEIGHTBL","Baseline Height (cm)","",165.1,"",null,"165.82","10.13","165.10","146.10","190.50"],[1227,5,81,"Xanomeline High Dose","01-708-1213","ADSL","HEIGHTBL","Baseline Height (cm)","",165.1,"",null,"165.82","10.13","165.10","146.10","190.50"],[1228,5,81,"Xanomeline High Dose","01-710-1137","ADSL","HEIGHTBL","Baseline Height (cm)","",165.1,"",null,"165.82","10.13","165.10","146.10","190.50"],[1229,5,81,"Xanomeline High Dose","01-705-1377","ADSL","HEIGHTBL","Baseline Height (cm)","",165.1,"",null,"165.82","10.13","165.10","146.10","190.50"],[1230,5,81,"Xanomeline High Dose","01-701-1360","ADSL","HEIGHTBL","Baseline Height (cm)","",166.4,"",null,"165.82","10.13","165.10","146.10","190.50"],[1231,5,81,"Xanomeline High Dose","01-701-1275","ADSL","HEIGHTBL","Baseline Height (cm)","",167.6,"",null,"165.82","10.13","165.10","146.10","190.50"],[1232,5,81,"Xanomeline High Dose","01-717-1174","ADSL","HEIGHTBL","Baseline Height (cm)","",167.6,"",null,"165.82","10.13","165.10","146.10","190.50"],[1233,5,81,"Xanomeline High Dose","01-706-1049","ADSL","HEIGHTBL","Baseline Height (cm)","",167.6,"",null,"165.82","10.13","165.10","146.10","190.50"],[1234,5,81,"Xanomeline High Dose","01-704-1074","ADSL","HEIGHTBL","Baseline Height (cm)","",167.6,"",null,"165.82","10.13","165.10","146.10","190.50"],[1235,5,81,"Xanomeline High Dose","01-701-1239","ADSL","HEIGHTBL","Baseline Height (cm)","",168.9,"",null,"165.82","10.13","165.10","146.10","190.50"],[1236,5,81,"Xanomeline High Dose","01-713-1141","ADSL","HEIGHTBL","Baseline Height (cm)","",170,"",null,"165.82","10.13","165.10","146.10","190.50"],[1237,5,81,"Xanomeline High Dose","01-718-1328","ADSL","HEIGHTBL","Baseline Height (cm)","",170.2,"",null,"165.82","10.13","165.10","146.10","190.50"],[1238,5,81,"Xanomeline High Dose","01-705-1382","ADSL","HEIGHTBL","Baseline Height (cm)","",170.2,"",null,"165.82","10.13","165.10","146.10","190.50"],[1239,5,81,"Xanomeline High Dose","01-704-1017","ADSL","HEIGHTBL","Baseline Height (cm)","",170.2,"",null,"165.82","10.13","165.10","146.10","190.50"],[1240,5,81,"Xanomeline High Dose","01-708-1372","ADSL","HEIGHTBL","Baseline Height (cm)","",170.2,"",null,"165.82","10.13","165.10","146.10","190.50"],[1241,5,81,"Xanomeline High Dose","01-711-1012","ADSL","HEIGHTBL","Baseline Height (cm)","",170.2,"",null,"165.82","10.13","165.10","146.10","190.50"],[1242,5,81,"Xanomeline High Dose","01-704-1241","ADSL","HEIGHTBL","Baseline Height (cm)","",170.2,"",null,"165.82","10.13","165.10","146.10","190.50"],[1243,5,81,"Xanomeline High Dose","01-709-1238","ADSL","HEIGHTBL","Baseline Height (cm)","",170.2,"",null,"165.82","10.13","165.10","146.10","190.50"],[1244,5,81,"Xanomeline High Dose","01-709-1329","ADSL","HEIGHTBL","Baseline Height (cm)","",170.2,"",null,"165.82","10.13","165.10","146.10","190.50"],[1245,5,81,"Xanomeline High Dose","01-710-1006","ADSL","HEIGHTBL","Baseline Height (cm)","",170.2,"",null,"165.82","10.13","165.10","146.10","190.50"],[1246,5,81,"Xanomeline High Dose","01-701-1444","ADSL","HEIGHTBL","Baseline Height (cm)","",171.5,"",null,"165.82","10.13","165.10","146.10","190.50"],[1247,5,81,"Xanomeline High Dose","01-709-1029","ADSL","HEIGHTBL","Baseline Height (cm)","",172.7,"",null,"165.82","10.13","165.10","146.10","190.50"],[1248,5,81,"Xanomeline High Dose","01-715-1319","ADSL","HEIGHTBL","Baseline Height (cm)","",172.7,"",null,"165.82","10.13","165.10","146.10","190.50"],[1249,5,81,"Xanomeline High Dose","01-708-1216","ADSL","HEIGHTBL","Baseline Height (cm)","",172.7,"",null,"165.82","10.13","165.10","146.10","190.50"],[1250,5,81,"Xanomeline High Dose","01-704-1332","ADSL","HEIGHTBL","Baseline Height (cm)","",173,"",null,"165.82","10.13","165.10","146.10","190.50"],[1251,5,81,"Xanomeline High Dose","01-704-1093","ADSL","HEIGHTBL","Baseline Height (cm)","",174,"",null,"165.82","10.13","165.10","146.10","190.50"],[1252,5,81,"Xanomeline High Dose","01-704-1266","ADSL","HEIGHTBL","Baseline Height (cm)","",174,"",null,"165.82","10.13","165.10","146.10","190.50"],[1253,5,81,"Xanomeline High Dose","01-709-1424","ADSL","HEIGHTBL","Baseline Height (cm)","",174,"",null,"165.82","10.13","165.10","146.10","190.50"],[1254,5,81,"Xanomeline High Dose","01-701-1148","ADSL","HEIGHTBL","Baseline Height (cm)","",175.3,"",null,"165.82","10.13","165.10","146.10","190.50"],[1255,5,81,"Xanomeline High Dose","01-705-1303","ADSL","HEIGHTBL","Baseline Height (cm)","",175.3,"",null,"165.82","10.13","165.10","146.10","190.50"],[1256,5,81,"Xanomeline High Dose","01-714-1425","ADSL","HEIGHTBL","Baseline Height (cm)","",177.8,"",null,"165.82","10.13","165.10","146.10","190.50"],[1257,5,81,"Xanomeline High Dose","01-701-1302","ADSL","HEIGHTBL","Baseline Height (cm)","",177.8,"",null,"165.82","10.13","165.10","146.10","190.50"],[1258,5,81,"Xanomeline High Dose","01-710-1249","ADSL","HEIGHTBL","Baseline Height (cm)","",177.8,"",null,"165.82","10.13","165.10","146.10","190.50"],[1259,5,81,"Xanomeline High Dose","01-710-1278","ADSL","HEIGHTBL","Baseline Height (cm)","",177.8,"",null,"165.82","10.13","165.10","146.10","190.50"],[1260,5,81,"Xanomeline High Dose","01-701-1028","ADSL","HEIGHTBL","Baseline Height (cm)","",177.8,"",null,"165.82","10.13","165.10","146.10","190.50"],[1261,5,81,"Xanomeline High Dose","01-709-1309","ADSL","HEIGHTBL","Baseline Height (cm)","",177.8,"",null,"165.82","10.13","165.10","146.10","190.50"],[1262,5,81,"Xanomeline High Dose","01-710-1408","ADSL","HEIGHTBL","Baseline Height (cm)","",177.8,"",null,"165.82","10.13","165.10","146.10","190.50"],[1263,5,81,"Xanomeline High Dose","01-703-1403","ADSL","HEIGHTBL","Baseline Height (cm)","",177.8,"",null,"165.82","10.13","165.10","146.10","190.50"],[1264,5,81,"Xanomeline High Dose","01-701-1180","ADSL","HEIGHTBL","Baseline Height (cm)","",180.3,"",null,"165.82","10.13","165.10","146.10","190.50"],[1265,5,81,"Xanomeline High Dose","01-717-1109","ADSL","HEIGHTBL","Baseline Height (cm)","",180.3,"",null,"165.82","10.13","165.10","146.10","190.50"],[1266,5,81,"Xanomeline High Dose","01-704-1065","ADSL","HEIGHTBL","Baseline Height (cm)","",180.3,"",null,"165.82","10.13","165.10","146.10","190.50"],[1267,5,81,"Xanomeline High Dose","01-717-1357","ADSL","HEIGHTBL","Baseline Height (cm)","",181.6,"",null,"165.82","10.13","165.10","146.10","190.50"],[1268,5,81,"Xanomeline High Dose","01-710-1354","ADSL","HEIGHTBL","Baseline Height (cm)","",182.9,"",null,"165.82","10.13","165.10","146.10","190.50"],[1269,5,81,"Xanomeline High Dose","01-718-1101","ADSL","HEIGHTBL","Baseline Height (cm)","",186.2,"",null,"165.82","10.13","165.10","146.10","190.50"],[1270,5,81,"Xanomeline High Dose","01-708-1336","ADSL","HEIGHTBL","Baseline Height (cm)","",190.5,"",null,"165.82","10.13","165.10","146.10","190.50"],[1271,6,0,"Placebo","01-710-1368","ADSL","WEIGHTBL","Baseline Weight (kg)","",34,"",null,"62.76","12.77","60.55","34.00","86.20"],[1272,6,0,"Placebo","01-705-1186","ADSL","WEIGHTBL","Baseline Weight (kg)","",39.9,"",null,"62.76","12.77","60.55","34.00","86.20"],[1273,6,0,"Placebo","01-704-1127","ADSL","WEIGHTBL","Baseline Weight (kg)","",41.1,"",null,"62.76","12.77","60.55","34.00","86.20"],[1274,6,0,"Placebo","01-710-1078","ADSL","WEIGHTBL","Baseline Weight (kg)","",41.7,"",null,"62.76","12.77","60.55","34.00","86.20"],[1275,6,0,"Placebo","01-710-1314","ADSL","WEIGHTBL","Baseline Weight (kg)","",42.6,"",null,"62.76","12.77","60.55","34.00","86.20"],[1276,6,0,"Placebo","01-705-1349","ADSL","WEIGHTBL","Baseline Weight (kg)","",44.5,"",null,"62.76","12.77","60.55","34.00","86.20"],[1277,6,0,"Placebo","01-709-1306","ADSL","WEIGHTBL","Baseline Weight (kg)","",44.5,"",null,"62.76","12.77","60.55","34.00","86.20"],[1278,6,0,"Placebo","01-703-1299","ADSL","WEIGHTBL","Baseline Weight (kg)","",45.4,"",null,"62.76","12.77","60.55","34.00","86.20"],[1279,6,0,"Placebo","01-704-1233","ADSL","WEIGHTBL","Baseline Weight (kg)","",46.3,"",null,"62.76","12.77","60.55","34.00","86.20"],[1280,6,0,"Placebo","01-710-1083","ADSL","WEIGHTBL","Baseline Weight (kg)","",47.2,"",null,"62.76","12.77","60.55","34.00","86.20"],[1281,6,0,"Placebo","01-710-1271","ADSL","WEIGHTBL","Baseline Weight (kg)","",47.6,"",null,"62.76","12.77","60.55","34.00","86.20"],[1282,6,0,"Placebo","01-710-1183","ADSL","WEIGHTBL","Baseline Weight (kg)","",47.6,"",null,"62.76","12.77","60.55","34.00","86.20"],[1283,6,0,"Placebo","01-704-1260","ADSL","WEIGHTBL","Baseline Weight (kg)","",48.8,"",null,"62.76","12.77","60.55","34.00","86.20"],[1284,6,0,"Placebo","01-710-1077","ADSL","WEIGHTBL","Baseline Weight (kg)","",49,"",null,"62.76","12.77","60.55","34.00","86.20"],[1285,6,0,"Placebo","01-705-1018","ADSL","WEIGHTBL","Baseline Weight (kg)","",49,"",null,"62.76","12.77","60.55","34.00","86.20"],[1286,6,0,"Placebo","01-701-1440","ADSL","WEIGHTBL","Baseline Weight (kg)","",49.4,"",null,"62.76","12.77","60.55","34.00","86.20"],[1287,6,0,"Placebo","01-715-1207","ADSL","WEIGHTBL","Baseline Weight (kg)","",49.4,"",null,"62.76","12.77","60.55","34.00","86.20"],[1288,6,0,"Placebo","01-704-1164","ADSL","WEIGHTBL","Baseline Weight (kg)","",49.9,"",null,"62.76","12.77","60.55","34.00","86.20"],[1289,6,0,"Placebo","01-703-1210","ADSL","WEIGHTBL","Baseline Weight (kg)","",49.9,"",null,"62.76","12.77","60.55","34.00","86.20"],[1290,6,0,"Placebo","01-709-1301","ADSL","WEIGHTBL","Baseline Weight (kg)","",50.4,"",null,"62.76","12.77","60.55","34.00","86.20"],[1291,6,0,"Placebo","01-716-1108","ADSL","WEIGHTBL","Baseline Weight (kg)","",52.6,"",null,"62.76","12.77","60.55","34.00","86.20"],[1292,6,0,"Placebo","01-709-1312","ADSL","WEIGHTBL","Baseline Weight (kg)","",53.5,"",null,"62.76","12.77","60.55","34.00","86.20"],[1293,6,0,"Placebo","01-705-1059","ADSL","WEIGHTBL","Baseline Weight (kg)","",54,"",null,"62.76","12.77","60.55","34.00","86.20"],[1294,6,0,"Placebo","01-716-1024","ADSL","WEIGHTBL","Baseline Weight (kg)","",54.4,"",null,"62.76","12.77","60.55","34.00","86.20"],[1295,6,0,"Placebo","01-714-1035","ADSL","WEIGHTBL","Baseline Weight (kg)","",54.4,"",null,"62.76","12.77","60.55","34.00","86.20"],[1296,6,0,"Placebo","01-701-1015","ADSL","WEIGHTBL","Baseline Weight (kg)","",54.4,"",null,"62.76","12.77","60.55","34.00","86.20"],[1297,6,0,"Placebo","01-718-1150","ADSL","WEIGHTBL","Baseline Weight (kg)","",54.9,"",null,"62.76","12.77","60.55","34.00","86.20"],[1298,6,0,"Placebo","01-708-1171","ADSL","WEIGHTBL","Baseline Weight (kg)","",54.9,"",null,"62.76","12.77","60.55","34.00","86.20"],[1299,6,0,"Placebo","01-713-1179","ADSL","WEIGHTBL","Baseline Weight (kg)","",55.3,"",null,"62.76","12.77","60.55","34.00","86.20"],[1300,6,0,"Placebo","01-710-1315","ADSL","WEIGHTBL","Baseline Weight (kg)","",56.3,"",null,"62.76","12.77","60.55","34.00","86.20"],[1301,6,0,"Placebo","01-701-1345","ADSL","WEIGHTBL","Baseline Weight (kg)","",56.3,"",null,"62.76","12.77","60.55","34.00","86.20"],[1302,6,0,"Placebo","01-716-1441","ADSL","WEIGHTBL","Baseline Weight (kg)","",57.6,"",null,"62.76","12.77","60.55","34.00","86.20"],[1303,6,0,"Placebo","01-714-1375","ADSL","WEIGHTBL","Baseline Weight (kg)","",57.6,"",null,"62.76","12.77","60.55","34.00","86.20"],[1304,6,0,"Placebo","01-717-1344","ADSL","WEIGHTBL","Baseline Weight (kg)","",58.1,"",null,"62.76","12.77","60.55","34.00","86.20"],[1305,6,0,"Placebo","01-701-1153","ADSL","WEIGHTBL","Baseline Weight (kg)","",58.1,"",null,"62.76","12.77","60.55","34.00","86.20"],[1306,6,0,"Placebo","01-704-1388","ADSL","WEIGHTBL","Baseline Weight (kg)","",58.5,"",null,"62.76","12.77","60.55","34.00","86.20"],[1307,6,0,"Placebo","01-718-1355","ADSL","WEIGHTBL","Baseline Weight (kg)","",58.5,"",null,"62.76","12.77","60.55","34.00","86.20"],[1308,6,0,"Placebo","01-716-1308","ADSL","WEIGHTBL","Baseline Weight (kg)","",58.5,"",null,"62.76","12.77","60.55","34.00","86.20"],[1309,6,0,"Placebo","01-706-1041","ADSL","WEIGHTBL","Baseline Weight (kg)","",58.7,"",null,"62.76","12.77","60.55","34.00","86.20"],[1310,6,0,"Placebo","01-708-1342","ADSL","WEIGHTBL","Baseline Weight (kg)","",59,"",null,"62.76","12.77","60.55","34.00","86.20"],[1311,6,0,"Placebo","01-701-1387","ADSL","WEIGHTBL","Baseline Weight (kg)","",59.4,"",null,"62.76","12.77","60.55","34.00","86.20"],[1312,6,0,"Placebo","01-716-1160","ADSL","WEIGHTBL","Baseline Weight (kg)","",59.9,"",null,"62.76","12.77","60.55","34.00","86.20"],[1313,6,0,"Placebo","01-708-1316","ADSL","WEIGHTBL","Baseline Weight (kg)","",59.9,"",null,"62.76","12.77","60.55","34.00","86.20"],[1314,6,0,"Placebo","01-703-1100","ADSL","WEIGHTBL","Baseline Weight (kg)","",61.2,"",null,"62.76","12.77","60.55","34.00","86.20"],[1315,6,0,"Placebo","01-715-1155","ADSL","WEIGHTBL","Baseline Weight (kg)","",63.5,"",null,"62.76","12.77","60.55","34.00","86.20"],[1316,6,0,"Placebo","01-701-1363","ADSL","WEIGHTBL","Baseline Weight (kg)","",64.9,"",null,"62.76","12.77","60.55","34.00","86.20"],[1317,6,0,"Placebo","01-709-1259","ADSL","WEIGHTBL","Baseline Weight (kg)","",65.3,"",null,"62.76","12.77","60.55","34.00","86.20"],[1318,6,0,"Placebo","01-718-1139","ADSL","WEIGHTBL","Baseline Weight (kg)","",65.8,"",null,"62.76","12.77","60.55","34.00","86.20"],[1319,6,0,"Placebo","01-718-1172","ADSL","WEIGHTBL","Baseline Weight (kg)","",66.2,"",null,"62.76","12.77","60.55","34.00","86.20"],[1320,6,0,"Placebo","01-701-1203","ADSL","WEIGHTBL","Baseline Weight (kg)","",66.2,"",null,"62.76","12.77","60.55","34.00","86.20"],[1321,6,0,"Placebo","01-708-1087","ADSL","WEIGHTBL","Baseline Weight (kg)","",66.7,"",null,"62.76","12.77","60.55","34.00","86.20"],[1322,6,0,"Placebo","01-701-1047","ADSL","WEIGHTBL","Baseline Weight (kg)","",67.1,"",null,"62.76","12.77","60.55","34.00","86.20"],[1323,6,0,"Placebo","01-715-1397","ADSL","WEIGHTBL","Baseline Weight (kg)","",67.1,"",null,"62.76","12.77","60.55","34.00","86.20"],[1324,6,0,"Placebo","01-717-1201","ADSL","WEIGHTBL","Baseline Weight (kg)","",68,"",null,"62.76","12.77","60.55","34.00","86.20"],[1325,6,0,"Placebo","01-711-1036","ADSL","WEIGHTBL","Baseline Weight (kg)","",69.2,"",null,"62.76","12.77","60.55","34.00","86.20"],[1326,6,0,"Placebo","01-710-1060","ADSL","WEIGHTBL","Baseline Weight (kg)","",70.3,"",null,"62.76","12.77","60.55","34.00","86.20"],[1327,6,0,"Placebo","01-708-1378","ADSL","WEIGHTBL","Baseline Weight (kg)","",70.3,"",null,"62.76","12.77","60.55","34.00","86.20"],[1328,6,0,"Placebo","01-710-1027","ADSL","WEIGHTBL","Baseline Weight (kg)","",70.8,"",null,"62.76","12.77","60.55","34.00","86.20"],[1329,6,0,"Placebo","01-701-1118","ADSL","WEIGHTBL","Baseline Weight (kg)","",71.2,"",null,"62.76","12.77","60.55","34.00","86.20"],[1330,6,0,"Placebo","01-704-1445","ADSL","WEIGHTBL","Baseline Weight (kg)","",72.1,"",null,"62.76","12.77","60.55","34.00","86.20"],[1331,6,0,"Placebo","01-709-1001","ADSL","WEIGHTBL","Baseline Weight (kg)","",73,"",null,"62.76","12.77","60.55","34.00","86.20"],[1332,6,0,"Placebo","01-705-1282","ADSL","WEIGHTBL","Baseline Weight (kg)","",73,"",null,"62.76","12.77","60.55","34.00","86.20"],[1333,6,0,"Placebo","01-708-1158","ADSL","WEIGHTBL","Baseline Weight (kg)","",73.5,"",null,"62.76","12.77","60.55","34.00","86.20"],[1334,6,0,"Placebo","01-704-1351","ADSL","WEIGHTBL","Baseline Weight (kg)","",73.5,"",null,"62.76","12.77","60.55","34.00","86.20"],[1335,6,0,"Placebo","01-703-1042","ADSL","WEIGHTBL","Baseline Weight (kg)","",74.4,"",null,"62.76","12.77","60.55","34.00","86.20"],[1336,6,0,"Placebo","01-707-1206","ADSL","WEIGHTBL","Baseline Weight (kg)","",74.4,"",null,"62.76","12.77","60.55","34.00","86.20"],[1337,6,0,"Placebo","01-713-1269","ADSL","WEIGHTBL","Baseline Weight (kg)","",75.3,"",null,"62.76","12.77","60.55","34.00","86.20"],[1338,6,0,"Placebo","01-708-1253","ADSL","WEIGHTBL","Baseline Weight (kg)","",75.8,"",null,"62.76","12.77","60.55","34.00","86.20"],[1339,6,0,"Placebo","01-704-1435","ADSL","WEIGHTBL","Baseline Weight (kg)","",76.2,"",null,"62.76","12.77","60.55","34.00","86.20"],[1340,6,0,"Placebo","01-708-1286","ADSL","WEIGHTBL","Baseline Weight (kg)","",76.2,"",null,"62.76","12.77","60.55","34.00","86.20"],[1341,6,0,"Placebo","01-701-1415","ADSL","WEIGHTBL","Baseline Weight (kg)","",76.7,"",null,"62.76","12.77","60.55","34.00","86.20"],[1342,6,0,"Placebo","01-713-1256","ADSL","WEIGHTBL","Baseline Weight (kg)","",77.1,"",null,"62.76","12.77","60.55","34.00","86.20"],[1343,6,0,"Placebo","01-703-1175","ADSL","WEIGHTBL","Baseline Weight (kg)","",77.1,"",null,"62.76","12.77","60.55","34.00","86.20"],[1344,6,0,"Placebo","01-701-1234","ADSL","WEIGHTBL","Baseline Weight (kg)","",77.1,"",null,"62.76","12.77","60.55","34.00","86.20"],[1345,6,0,"Placebo","01-709-1339","ADSL","WEIGHTBL","Baseline Weight (kg)","",78,"",null,"62.76","12.77","60.55","34.00","86.20"],[1346,6,0,"Placebo","01-701-1130","ADSL","WEIGHTBL","Baseline Weight (kg)","",79.4,"",null,"62.76","12.77","60.55","34.00","86.20"],[1347,6,0,"Placebo","01-709-1088","ADSL","WEIGHTBL","Baseline Weight (kg)","",79.4,"",null,"62.76","12.77","60.55","34.00","86.20"],[1348,6,0,"Placebo","01-716-1026","ADSL","WEIGHTBL","Baseline Weight (kg)","",79.8,"",null,"62.76","12.77","60.55","34.00","86.20"],[1349,6,0,"Placebo","01-701-1023","ADSL","WEIGHTBL","Baseline Weight (kg)","",80.3,"",null,"62.76","12.77","60.55","34.00","86.20"],[1350,6,0,"Placebo","01-708-1296","ADSL","WEIGHTBL","Baseline Weight (kg)","",80.7,"",null,"62.76","12.77","60.55","34.00","86.20"],[1351,6,0,"Placebo","01-704-1010","ADSL","WEIGHTBL","Baseline Weight (kg)","",81,"",null,"62.76","12.77","60.55","34.00","86.20"],[1352,6,0,"Placebo","01-703-1096","ADSL","WEIGHTBL","Baseline Weight (kg)","",81.2,"",null,"62.76","12.77","60.55","34.00","86.20"],[1353,6,0,"Placebo","01-701-1392","ADSL","WEIGHTBL","Baseline Weight (kg)","",81.2,"",null,"62.76","12.77","60.55","34.00","86.20"],[1354,6,0,"Placebo","01-710-1264","ADSL","WEIGHTBL","Baseline Weight (kg)","",81.7,"",null,"62.76","12.77","60.55","34.00","86.20"],[1355,6,0,"Placebo","01-716-1177","ADSL","WEIGHTBL","Baseline Weight (kg)","",86.2,"",null,"62.76","12.77","60.55","34.00","86.20"],[1356,6,0,"Placebo","01-716-1044","ADSL","WEIGHTBL","Baseline Weight (kg)","",86.2,"",null,"62.76","12.77","60.55","34.00","86.20"],[1357,6,54,"Xanomeline Low Dose","01-702-1082","ADSL","WEIGHTBL","Baseline Weight (kg)","",null,"",null,"67.28","14.12","64.90","45.40","106.10"],[1358,6,54,"Xanomeline Low Dose","01-701-1211","ADSL","WEIGHTBL","Baseline Weight (kg)","",45.4,"",null,"67.28","14.12","64.90","45.40","106.10"],[1359,6,54,"Xanomeline Low Dose","01-716-1151","ADSL","WEIGHTBL","Baseline Weight (kg)","",45.8,"",null,"67.28","14.12","64.90","45.40","106.10"],[1360,6,54,"Xanomeline Low Dose","01-710-1300","ADSL","WEIGHTBL","Baseline Weight (kg)","",46.7,"",null,"67.28","14.12","64.90","45.40","106.10"],[1361,6,54,"Xanomeline Low Dose","01-703-1119","ADSL","WEIGHTBL","Baseline Weight (kg)","",47.2,"",null,"67.28","14.12","64.90","45.40","106.10"],[1362,6,54,"Xanomeline Low Dose","01-717-1446","ADSL","WEIGHTBL","Baseline Weight (kg)","",47.2,"",null,"67.28","14.12","64.90","45.40","106.10"],[1363,6,54,"Xanomeline Low Dose","01-718-1066","ADSL","WEIGHTBL","Baseline Weight (kg)","",50.4,"",null,"67.28","14.12","64.90","45.40","106.10"],[1364,6,54,"Xanomeline Low Dose","01-708-1084","ADSL","WEIGHTBL","Baseline Weight (kg)","",50.4,"",null,"67.28","14.12","64.90","45.40","106.10"],[1365,6,54,"Xanomeline Low Dose","01-708-1353","ADSL","WEIGHTBL","Baseline Weight (kg)","",50.4,"",null,"67.28","14.12","64.90","45.40","106.10"],[1366,6,54,"Xanomeline Low Dose","01-718-1079","ADSL","WEIGHTBL","Baseline Weight (kg)","",50.4,"",null,"67.28","14.12","64.90","45.40","106.10"],[1367,6,54,"Xanomeline Low Dose","01-713-1043","ADSL","WEIGHTBL","Baseline Weight (kg)","",51.3,"",null,"67.28","14.12","64.90","45.40","106.10"],[1368,6,54,"Xanomeline Low Dose","01-710-1053","ADSL","WEIGHTBL","Baseline Weight (kg)","",51.7,"",null,"67.28","14.12","64.90","45.40","106.10"],[1369,6,54,"Xanomeline Low Dose","01-704-1120","ADSL","WEIGHTBL","Baseline Weight (kg)","",51.7,"",null,"67.28","14.12","64.90","45.40","106.10"],[1370,6,54,"Xanomeline Low Dose","01-704-1218","ADSL","WEIGHTBL","Baseline Weight (kg)","",54.4,"",null,"67.28","14.12","64.90","45.40","106.10"],[1371,6,54,"Xanomeline Low Dose","01-714-1068","ADSL","WEIGHTBL","Baseline Weight (kg)","",54.4,"",null,"67.28","14.12","64.90","45.40","106.10"],[1372,6,54,"Xanomeline Low Dose","01-705-1431","ADSL","WEIGHTBL","Baseline Weight (kg)","",54.4,"",null,"67.28","14.12","64.90","45.40","106.10"],[1373,6,54,"Xanomeline Low Dose","01-709-1020","ADSL","WEIGHTBL","Baseline Weight (kg)","",54.4,"",null,"67.28","14.12","64.90","45.40","106.10"],[1374,6,54,"Xanomeline Low Dose","01-710-1166","ADSL","WEIGHTBL","Baseline Weight (kg)","",54.9,"",null,"67.28","14.12","64.90","45.40","106.10"],[1375,6,54,"Xanomeline Low Dose","01-707-1037","ADSL","WEIGHTBL","Baseline Weight (kg)","",55.3,"",null,"67.28","14.12","64.90","45.40","106.10"],[1376,6,54,"Xanomeline Low Dose","01-704-1025","ADSL","WEIGHTBL","Baseline Weight (kg)","",55.5,"",null,"67.28","14.12","64.90","45.40","106.10"],[1377,6,54,"Xanomeline Low Dose","01-717-1004","ADSL","WEIGHTBL","Baseline Weight (kg)","",55.8,"",null,"67.28","14.12","64.90","45.40","106.10"],[1378,6,54,"Xanomeline Low Dose","01-703-1279","ADSL","WEIGHTBL","Baseline Weight (kg)","",55.8,"",null,"67.28","14.12","64.90","45.40","106.10"],[1379,6,54,"Xanomeline Low Dose","01-705-1393","ADSL","WEIGHTBL","Baseline Weight (kg)","",56.3,"",null,"67.28","14.12","64.90","45.40","106.10"],[1380,6,54,"Xanomeline Low Dose","01-709-1081","ADSL","WEIGHTBL","Baseline Weight (kg)","",56.5,"",null,"67.28","14.12","64.90","45.40","106.10"],[1381,6,54,"Xanomeline Low Dose","01-701-1429","ADSL","WEIGHTBL","Baseline Weight (kg)","",56.7,"",null,"67.28","14.12","64.90","45.40","106.10"],[1382,6,54,"Xanomeline Low Dose","01-713-1073","ADSL","WEIGHTBL","Baseline Weight (kg)","",56.9,"",null,"67.28","14.12","64.90","45.40","106.10"],[1383,6,54,"Xanomeline Low Dose","01-710-1270","ADSL","WEIGHTBL","Baseline Weight (kg)","",57.6,"",null,"67.28","14.12","64.90","45.40","106.10"],[1384,6,54,"Xanomeline Low Dose","01-718-1170","ADSL","WEIGHTBL","Baseline Weight (kg)","",57.6,"",null,"67.28","14.12","64.90","45.40","106.10"],[1385,6,54,"Xanomeline Low Dose","01-715-1085","ADSL","WEIGHTBL","Baseline Weight (kg)","",57.6,"",null,"67.28","14.12","64.90","45.40","106.10"],[1386,6,54,"Xanomeline Low Dose","01-710-1045","ADSL","WEIGHTBL","Baseline Weight (kg)","",58.1,"",null,"67.28","14.12","64.90","45.40","106.10"],[1387,6,54,"Xanomeline Low Dose","01-718-1250","ADSL","WEIGHTBL","Baseline Weight (kg)","",58.5,"",null,"67.28","14.12","64.90","45.40","106.10"],[1388,6,54,"Xanomeline Low Dose","01-708-1428","ADSL","WEIGHTBL","Baseline Weight (kg)","",59,"",null,"67.28","14.12","64.90","45.40","106.10"],[1389,6,54,"Xanomeline Low Dose","01-716-1157","ADSL","WEIGHTBL","Baseline Weight (kg)","",59.4,"",null,"67.28","14.12","64.90","45.40","106.10"],[1390,6,54,"Xanomeline Low Dose","01-701-1111","ADSL","WEIGHTBL","Baseline Weight (kg)","",59.9,"",null,"67.28","14.12","64.90","45.40","106.10"],[1391,6,54,"Xanomeline Low Dose","01-709-1007","ADSL","WEIGHTBL","Baseline Weight (kg)","",59.9,"",null,"67.28","14.12","64.90","45.40","106.10"],[1392,6,54,"Xanomeline Low Dose","01-704-1323","ADSL","WEIGHTBL","Baseline Weight (kg)","",59.9,"",null,"67.28","14.12","64.90","45.40","106.10"],[1393,6,54,"Xanomeline Low Dose","01-708-1348","ADSL","WEIGHTBL","Baseline Weight (kg)","",60.3,"",null,"67.28","14.12","64.90","45.40","106.10"],[1394,6,54,"Xanomeline Low Dose","01-716-1167","ADSL","WEIGHTBL","Baseline Weight (kg)","",62.6,"",null,"67.28","14.12","64.90","45.40","106.10"],[1395,6,54,"Xanomeline Low Dose","01-701-1192","ADSL","WEIGHTBL","Baseline Weight (kg)","",63.5,"",null,"67.28","14.12","64.90","45.40","106.10"],[1396,6,54,"Xanomeline Low Dose","01-705-1199","ADSL","WEIGHTBL","Baseline Weight (kg)","",64.4,"",null,"67.28","14.12","64.90","45.40","106.10"],[1397,6,54,"Xanomeline Low Dose","01-704-1135","ADSL","WEIGHTBL","Baseline Weight (kg)","",64.4,"",null,"67.28","14.12","64.90","45.40","106.10"],[1398,6,54,"Xanomeline Low Dose","01-711-1143","ADSL","WEIGHTBL","Baseline Weight (kg)","",64.6,"",null,"67.28","14.12","64.90","45.40","106.10"],[1399,6,54,"Xanomeline Low Dose","01-709-1285","ADSL","WEIGHTBL","Baseline Weight (kg)","",64.9,"",null,"67.28","14.12","64.90","45.40","106.10"],[1400,6,54,"Xanomeline Low Dose","01-704-1009","ADSL","WEIGHTBL","Baseline Weight (kg)","",66.7,"",null,"67.28","14.12","64.90","45.40","106.10"],[1401,6,54,"Xanomeline Low Dose","01-701-1317","ADSL","WEIGHTBL","Baseline Weight (kg)","",66.7,"",null,"67.28","14.12","64.90","45.40","106.10"],[1402,6,54,"Xanomeline Low Dose","01-703-1182","ADSL","WEIGHTBL","Baseline Weight (kg)","",68,"",null,"67.28","14.12","64.90","45.40","106.10"],[1403,6,54,"Xanomeline Low Dose","01-709-1217","ADSL","WEIGHTBL","Baseline Weight (kg)","",68,"",null,"67.28","14.12","64.90","45.40","106.10"],[1404,6,54,"Xanomeline Low Dose","01-704-1325","ADSL","WEIGHTBL","Baseline Weight (kg)","",68.5,"",null,"67.28","14.12","64.90","45.40","106.10"],[1405,6,54,"Xanomeline Low Dose","01-715-1107","ADSL","WEIGHTBL","Baseline Weight (kg)","",69.4,"",null,"67.28","14.12","64.90","45.40","106.10"],[1406,6,54,"Xanomeline Low Dose","01-716-1103","ADSL","WEIGHTBL","Baseline Weight (kg)","",69.9,"",null,"67.28","14.12","64.90","45.40","106.10"],[1407,6,54,"Xanomeline Low Dose","01-715-1405","ADSL","WEIGHTBL","Baseline Weight (kg)","",69.9,"",null,"67.28","14.12","64.90","45.40","106.10"],[1408,6,54,"Xanomeline Low Dose","01-710-1002","ADSL","WEIGHTBL","Baseline Weight (kg)","",70.3,"",null,"67.28","14.12","64.90","45.40","106.10"],[1409,6,54,"Xanomeline Low Dose","01-701-1341","ADSL","WEIGHTBL","Baseline Weight (kg)","",70.8,"",null,"67.28","14.12","64.90","45.40","106.10"],[1410,6,54,"Xanomeline Low Dose","01-705-1031","ADSL","WEIGHTBL","Baseline Weight (kg)","",71.7,"",null,"67.28","14.12","64.90","45.40","106.10"],[1411,6,54,"Xanomeline Low Dose","01-716-1298","ADSL","WEIGHTBL","Baseline Weight (kg)","",71.7,"",null,"67.28","14.12","64.90","45.40","106.10"],[1412,6,54,"Xanomeline Low Dose","01-716-1063","ADSL","WEIGHTBL","Baseline Weight (kg)","",72.6,"",null,"67.28","14.12","64.90","45.40","106.10"],[1413,6,54,"Xanomeline Low Dose","01-708-1272","ADSL","WEIGHTBL","Baseline Weight (kg)","",74.4,"",null,"67.28","14.12","64.90","45.40","106.10"],[1414,6,54,"Xanomeline Low Dose","01-708-1019","ADSL","WEIGHTBL","Baseline Weight (kg)","",74.4,"",null,"67.28","14.12","64.90","45.40","106.10"],[1415,6,54,"Xanomeline Low Dose","01-709-1326","ADSL","WEIGHTBL","Baseline Weight (kg)","",74.8,"",null,"67.28","14.12","64.90","45.40","106.10"],[1416,6,54,"Xanomeline Low Dose","01-705-1292","ADSL","WEIGHTBL","Baseline Weight (kg)","",75.3,"",null,"67.28","14.12","64.90","45.40","106.10"],[1417,6,54,"Xanomeline Low Dose","01-706-1384","ADSL","WEIGHTBL","Baseline Weight (kg)","",76,"",null,"67.28","14.12","64.90","45.40","106.10"],[1418,6,54,"Xanomeline Low Dose","01-703-1379","ADSL","WEIGHTBL","Baseline Weight (kg)","",76.2,"",null,"67.28","14.12","64.90","45.40","106.10"],[1419,6,54,"Xanomeline Low Dose","01-701-1324","ADSL","WEIGHTBL","Baseline Weight (kg)","",77.1,"",null,"67.28","14.12","64.90","45.40","106.10"],[1420,6,54,"Xanomeline Low Dose","01-704-1114","ADSL","WEIGHTBL","Baseline Weight (kg)","",77.8,"",null,"67.28","14.12","64.90","45.40","106.10"],[1421,6,54,"Xanomeline Low Dose","01-701-1097","ADSL","WEIGHTBL","Baseline Weight (kg)","",78,"",null,"67.28","14.12","64.90","45.40","106.10"],[1422,6,54,"Xanomeline Low Dose","01-713-1448","ADSL","WEIGHTBL","Baseline Weight (kg)","",78.5,"",null,"67.28","14.12","64.90","45.40","106.10"],[1423,6,54,"Xanomeline Low Dose","01-701-1294","ADSL","WEIGHTBL","Baseline Weight (kg)","",78.5,"",null,"67.28","14.12","64.90","45.40","106.10"],[1424,6,54,"Xanomeline Low Dose","01-701-1115","ADSL","WEIGHTBL","Baseline Weight (kg)","",78.9,"",null,"67.28","14.12","64.90","45.40","106.10"],[1425,6,54,"Xanomeline Low Dose","01-708-1297","ADSL","WEIGHTBL","Baseline Weight (kg)","",78.9,"",null,"67.28","14.12","64.90","45.40","106.10"],[1426,6,54,"Xanomeline Low Dose","01-716-1094","ADSL","WEIGHTBL","Baseline Weight (kg)","",80.7,"",null,"67.28","14.12","64.90","45.40","106.10"],[1427,6,54,"Xanomeline Low Dose","01-716-1311","ADSL","WEIGHTBL","Baseline Weight (kg)","",80.7,"",null,"67.28","14.12","64.90","45.40","106.10"],[1428,6,54,"Xanomeline Low Dose","01-710-1358","ADSL","WEIGHTBL","Baseline Weight (kg)","",82.1,"",null,"67.28","14.12","64.90","45.40","106.10"],[1429,6,54,"Xanomeline Low Dose","01-718-1254","ADSL","WEIGHTBL","Baseline Weight (kg)","",82.1,"",null,"67.28","14.12","64.90","45.40","106.10"],[1430,6,54,"Xanomeline Low Dose","01-710-1154","ADSL","WEIGHTBL","Baseline Weight (kg)","",82.6,"",null,"67.28","14.12","64.90","45.40","106.10"],[1431,6,54,"Xanomeline Low Dose","01-708-1032","ADSL","WEIGHTBL","Baseline Weight (kg)","",82.6,"",null,"67.28","14.12","64.90","45.40","106.10"],[1432,6,54,"Xanomeline Low Dose","01-710-1385","ADSL","WEIGHTBL","Baseline Weight (kg)","",84.4,"",null,"67.28","14.12","64.90","45.40","106.10"],[1433,6,54,"Xanomeline Low Dose","01-714-1195","ADSL","WEIGHTBL","Baseline Weight (kg)","",85.7,"",null,"67.28","14.12","64.90","45.40","106.10"],[1434,6,54,"Xanomeline Low Dose","01-701-1033","ADSL","WEIGHTBL","Baseline Weight (kg)","",88.5,"",null,"67.28","14.12","64.90","45.40","106.10"],[1435,6,54,"Xanomeline Low Dose","01-709-1102","ADSL","WEIGHTBL","Baseline Weight (kg)","",88.9,"",null,"67.28","14.12","64.90","45.40","106.10"],[1436,6,54,"Xanomeline Low Dose","01-710-1235","ADSL","WEIGHTBL","Baseline Weight (kg)","",95.7,"",null,"67.28","14.12","64.90","45.40","106.10"],[1437,6,54,"Xanomeline Low Dose","01-703-1086","ADSL","WEIGHTBL","Baseline Weight (kg)","",95.7,"",null,"67.28","14.12","64.90","45.40","106.10"],[1438,6,54,"Xanomeline Low Dose","01-701-1188","ADSL","WEIGHTBL","Baseline Weight (kg)","",101.2,"",null,"67.28","14.12","64.90","45.40","106.10"],[1439,6,54,"Xanomeline Low Dose","01-703-1197","ADSL","WEIGHTBL","Baseline Weight (kg)","",102.1,"",null,"67.28","14.12","64.90","45.40","106.10"],[1440,6,54,"Xanomeline Low Dose","01-701-1442","ADSL","WEIGHTBL","Baseline Weight (kg)","",106.1,"",null,"67.28","14.12","64.90","45.40","106.10"],[1441,6,81,"Xanomeline High Dose","01-708-1213","ADSL","WEIGHTBL","Baseline Weight (kg)","",41.7,"",null,"70.00","14.65","69.20","41.70","108.00"],[1442,6,81,"Xanomeline High Dose","01-717-1109","ADSL","WEIGHTBL","Baseline Weight (kg)","",44.5,"",null,"70.00","14.65","69.20","41.70","108.00"],[1443,6,81,"Xanomeline High Dose","01-704-1008","ADSL","WEIGHTBL","Baseline Weight (kg)","",46.7,"",null,"70.00","14.65","69.20","41.70","108.00"],[1444,6,81,"Xanomeline High Dose","01-705-1310","ADSL","WEIGHTBL","Baseline Weight (kg)","",48.5,"",null,"70.00","14.65","69.20","41.70","108.00"],[1445,6,81,"Xanomeline High Dose","01-710-1070","ADSL","WEIGHTBL","Baseline Weight (kg)","",49,"",null,"70.00","14.65","69.20","41.70","108.00"],[1446,6,81,"Xanomeline High Dose","01-714-1288","ADSL","WEIGHTBL","Baseline Weight (kg)","",49.4,"",null,"70.00","14.65","69.20","41.70","108.00"],[1447,6,81,"Xanomeline High Dose","01-710-1187","ADSL","WEIGHTBL","Baseline Weight (kg)","",49.9,"",null,"70.00","14.65","69.20","41.70","108.00"],[1448,6,81,"Xanomeline High Dose","01-718-1427","ADSL","WEIGHTBL","Baseline Weight (kg)","",51.7,"",null,"70.00","14.65","69.20","41.70","108.00"],[1449,6,81,"Xanomeline High Dose","01-711-1433","ADSL","WEIGHTBL","Baseline Weight (kg)","",51.9,"",null,"70.00","14.65","69.20","41.70","108.00"],[1450,6,81,"Xanomeline High Dose","01-713-1209","ADSL","WEIGHTBL","Baseline Weight (kg)","",52.2,"",null,"70.00","14.65","69.20","41.70","108.00"],[1451,6,81,"Xanomeline High Dose","01-713-1106","ADSL","WEIGHTBL","Baseline Weight (kg)","",53.1,"",null,"70.00","14.65","69.20","41.70","108.00"],[1452,6,81,"Xanomeline High Dose","01-709-1099","ADSL","WEIGHTBL","Baseline Weight (kg)","",53.5,"",null,"70.00","14.65","69.20","41.70","108.00"],[1453,6,81,"Xanomeline High Dose","01-716-1364","ADSL","WEIGHTBL","Baseline Weight (kg)","",54,"",null,"70.00","14.65","69.20","41.70","108.00"],[1454,6,81,"Xanomeline High Dose","01-701-1146","ADSL","WEIGHTBL","Baseline Weight (kg)","",54,"",null,"70.00","14.65","69.20","41.70","108.00"],[1455,6,81,"Xanomeline High Dose","01-708-1236","ADSL","WEIGHTBL","Baseline Weight (kg)","",54.4,"",null,"70.00","14.65","69.20","41.70","108.00"],[1456,6,81,"Xanomeline High Dose","01-716-1447","ADSL","WEIGHTBL","Baseline Weight (kg)","",54.4,"",null,"70.00","14.65","69.20","41.70","108.00"],[1457,6,81,"Xanomeline High Dose","01-708-1406","ADSL","WEIGHTBL","Baseline Weight (kg)","",54.9,"",null,"70.00","14.65","69.20","41.70","108.00"],[1458,6,81,"Xanomeline High Dose","01-703-1335","ADSL","WEIGHTBL","Baseline Weight (kg)","",55.3,"",null,"70.00","14.65","69.20","41.70","108.00"],[1459,6,81,"Xanomeline High Dose","01-701-1287","ADSL","WEIGHTBL","Baseline Weight (kg)","",56.3,"",null,"70.00","14.65","69.20","41.70","108.00"],[1460,6,81,"Xanomeline High Dose","01-710-1021","ADSL","WEIGHTBL","Baseline Weight (kg)","",56.3,"",null,"70.00","14.65","69.20","41.70","108.00"],[1461,6,81,"Xanomeline High Dose","01-703-1295","ADSL","WEIGHTBL","Baseline Weight (kg)","",56.3,"",null,"70.00","14.65","69.20","41.70","108.00"],[1462,6,81,"Xanomeline High Dose","01-705-1377","ADSL","WEIGHTBL","Baseline Weight (kg)","",57.2,"",null,"70.00","14.65","69.20","41.70","108.00"],[1463,6,81,"Xanomeline High Dose","01-710-1142","ADSL","WEIGHTBL","Baseline Weight (kg)","",57.6,"",null,"70.00","14.65","69.20","41.70","108.00"],[1464,6,81,"Xanomeline High Dose","01-706-1049","ADSL","WEIGHTBL","Baseline Weight (kg)","",57.8,"",null,"70.00","14.65","69.20","41.70","108.00"],[1465,6,81,"Xanomeline High Dose","01-703-1258","ADSL","WEIGHTBL","Baseline Weight (kg)","",59.4,"",null,"70.00","14.65","69.20","41.70","108.00"],[1466,6,81,"Xanomeline High Dose","01-715-1321","ADSL","WEIGHTBL","Baseline Weight (kg)","",59.9,"",null,"70.00","14.65","69.20","41.70","108.00"],[1467,6,81,"Xanomeline High Dose","01-709-1168","ADSL","WEIGHTBL","Baseline Weight (kg)","",62.1,"",null,"70.00","14.65","69.20","41.70","108.00"],[1468,6,81,"Xanomeline High Dose","01-701-1034","ADSL","WEIGHTBL","Baseline Weight (kg)","",62.6,"",null,"70.00","14.65","69.20","41.70","108.00"],[1469,6,81,"Xanomeline High Dose","01-708-1178","ADSL","WEIGHTBL","Baseline Weight (kg)","",62.8,"",null,"70.00","14.65","69.20","41.70","108.00"],[1470,6,81,"Xanomeline High Dose","01-704-1017","ADSL","WEIGHTBL","Baseline Weight (kg)","",63.1,"",null,"70.00","14.65","69.20","41.70","108.00"],[1471,6,81,"Xanomeline High Dose","01-718-1328","ADSL","WEIGHTBL","Baseline Weight (kg)","",63.5,"",null,"70.00","14.65","69.20","41.70","108.00"],[1472,6,81,"Xanomeline High Dose","01-703-1439","ADSL","WEIGHTBL","Baseline Weight (kg)","",63.5,"",null,"70.00","14.65","69.20","41.70","108.00"],[1473,6,81,"Xanomeline High Dose","01-716-1229","ADSL","WEIGHTBL","Baseline Weight (kg)","",64,"",null,"70.00","14.65","69.20","41.70","108.00"],[1474,6,81,"Xanomeline High Dose","01-710-1137","ADSL","WEIGHTBL","Baseline Weight (kg)","",65.3,"",null,"70.00","14.65","69.20","41.70","108.00"],[1475,6,81,"Xanomeline High Dose","01-718-1371","ADSL","WEIGHTBL","Baseline Weight (kg)","",66.7,"",null,"70.00","14.65","69.20","41.70","108.00"],[1476,6,81,"Xanomeline High Dose","01-701-1181","ADSL","WEIGHTBL","Baseline Weight (kg)","",66.7,"",null,"70.00","14.65","69.20","41.70","108.00"],[1477,6,81,"Xanomeline High Dose","01-717-1174","ADSL","WEIGHTBL","Baseline Weight (kg)","",68,"",null,"70.00","14.65","69.20","41.70","108.00"],[1478,6,81,"Xanomeline High Dose","01-713-1141","ADSL","WEIGHTBL","Baseline Weight (kg)","",68,"",null,"70.00","14.65","69.20","41.70","108.00"],[1479,6,81,"Xanomeline High Dose","01-709-1424","ADSL","WEIGHTBL","Baseline Weight (kg)","",68.5,"",null,"70.00","14.65","69.20","41.70","108.00"],[1480,6,81,"Xanomeline High Dose","01-709-1029","ADSL","WEIGHTBL","Baseline Weight (kg)","",69,"",null,"70.00","14.65","69.20","41.70","108.00"],[1481,6,81,"Xanomeline High Dose","01-716-1418","ADSL","WEIGHTBL","Baseline Weight (kg)","",69,"",null,"70.00","14.65","69.20","41.70","108.00"],[1482,6,81,"Xanomeline High Dose","01-701-1275","ADSL","WEIGHTBL","Baseline Weight (kg)","",69,"",null,"70.00","14.65","69.20","41.70","108.00"],[1483,6,81,"Xanomeline High Dose","01-705-1280","ADSL","WEIGHTBL","Baseline Weight (kg)","",69.4,"",null,"70.00","14.65","69.20","41.70","108.00"],[1484,6,81,"Xanomeline High Dose","01-716-1373","ADSL","WEIGHTBL","Baseline Weight (kg)","",69.4,"",null,"70.00","14.65","69.20","41.70","108.00"],[1485,6,81,"Xanomeline High Dose","01-710-1278","ADSL","WEIGHTBL","Baseline Weight (kg)","",71.7,"",null,"70.00","14.65","69.20","41.70","108.00"],[1486,6,81,"Xanomeline High Dose","01-710-1006","ADSL","WEIGHTBL","Baseline Weight (kg)","",72.6,"",null,"70.00","14.65","69.20","41.70","108.00"],[1487,6,81,"Xanomeline High Dose","01-704-1241","ADSL","WEIGHTBL","Baseline Weight (kg)","",73,"",null,"70.00","14.65","69.20","41.70","108.00"],[1488,6,81,"Xanomeline High Dose","01-705-1281","ADSL","WEIGHTBL","Baseline Weight (kg)","",73,"",null,"70.00","14.65","69.20","41.70","108.00"],[1489,6,81,"Xanomeline High Dose","01-716-1189","ADSL","WEIGHTBL","Baseline Weight (kg)","",73.5,"",null,"70.00","14.65","69.20","41.70","108.00"],[1490,6,81,"Xanomeline High Dose","01-704-1093","ADSL","WEIGHTBL","Baseline Weight (kg)","",73.5,"",null,"70.00","14.65","69.20","41.70","108.00"],[1491,6,81,"Xanomeline High Dose","01-701-1133","ADSL","WEIGHTBL","Baseline Weight (kg)","",74.4,"",null,"70.00","14.65","69.20","41.70","108.00"],[1492,6,81,"Xanomeline High Dose","01-708-1347","ADSL","WEIGHTBL","Baseline Weight (kg)","",74.8,"",null,"70.00","14.65","69.20","41.70","108.00"],[1493,6,81,"Xanomeline High Dose","01-716-1030","ADSL","WEIGHTBL","Baseline Weight (kg)","",75.3,"",null,"70.00","14.65","69.20","41.70","108.00"],[1494,6,81,"Xanomeline High Dose","01-715-1319","ADSL","WEIGHTBL","Baseline Weight (kg)","",75.8,"",null,"70.00","14.65","69.20","41.70","108.00"],[1495,6,81,"Xanomeline High Dose","01-704-1074","ADSL","WEIGHTBL","Baseline Weight (kg)","",75.8,"",null,"70.00","14.65","69.20","41.70","108.00"],[1496,6,81,"Xanomeline High Dose","01-716-1071","ADSL","WEIGHTBL","Baseline Weight (kg)","",76.7,"",null,"70.00","14.65","69.20","41.70","108.00"],[1497,6,81,"Xanomeline High Dose","01-709-1329","ADSL","WEIGHTBL","Baseline Weight (kg)","",76.7,"",null,"70.00","14.65","69.20","41.70","108.00"],[1498,6,81,"Xanomeline High Dose","01-708-1216","ADSL","WEIGHTBL","Baseline Weight (kg)","",77.1,"",null,"70.00","14.65","69.20","41.70","108.00"],[1499,6,81,"Xanomeline High Dose","01-709-1309","ADSL","WEIGHTBL","Baseline Weight (kg)","",78.5,"",null,"70.00","14.65","69.20","41.70","108.00"],[1500,6,81,"Xanomeline High Dose","01-704-1332","ADSL","WEIGHTBL","Baseline Weight (kg)","",78.5,"",null,"70.00","14.65","69.20","41.70","108.00"],[1501,6,81,"Xanomeline High Dose","01-710-1249","ADSL","WEIGHTBL","Baseline Weight (kg)","",80.3,"",null,"70.00","14.65","69.20","41.70","108.00"],[1502,6,81,"Xanomeline High Dose","01-703-1403","ADSL","WEIGHTBL","Baseline Weight (kg)","",80.3,"",null,"70.00","14.65","69.20","41.70","108.00"],[1503,6,81,"Xanomeline High Dose","01-701-1360","ADSL","WEIGHTBL","Baseline Weight (kg)","",80.3,"",null,"70.00","14.65","69.20","41.70","108.00"],[1504,6,81,"Xanomeline High Dose","01-718-1101","ADSL","WEIGHTBL","Baseline Weight (kg)","",80.3,"",null,"70.00","14.65","69.20","41.70","108.00"],[1505,6,81,"Xanomeline High Dose","01-704-1065","ADSL","WEIGHTBL","Baseline Weight (kg)","",80.7,"",null,"70.00","14.65","69.20","41.70","108.00"],[1506,6,81,"Xanomeline High Dose","01-711-1012","ADSL","WEIGHTBL","Baseline Weight (kg)","",81,"",null,"70.00","14.65","69.20","41.70","108.00"],[1507,6,81,"Xanomeline High Dose","01-717-1357","ADSL","WEIGHTBL","Baseline Weight (kg)","",81.3,"",null,"70.00","14.65","69.20","41.70","108.00"],[1508,6,81,"Xanomeline High Dose","01-701-1302","ADSL","WEIGHTBL","Baseline Weight (kg)","",82.1,"",null,"70.00","14.65","69.20","41.70","108.00"],[1509,6,81,"Xanomeline High Dose","01-709-1238","ADSL","WEIGHTBL","Baseline Weight (kg)","",82.6,"",null,"70.00","14.65","69.20","41.70","108.00"],[1510,6,81,"Xanomeline High Dose","01-705-1303","ADSL","WEIGHTBL","Baseline Weight (kg)","",84.4,"",null,"70.00","14.65","69.20","41.70","108.00"],[1511,6,81,"Xanomeline High Dose","01-701-1383","ADSL","WEIGHTBL","Baseline Weight (kg)","",84.8,"",null,"70.00","14.65","69.20","41.70","108.00"],[1512,6,81,"Xanomeline High Dose","01-701-1148","ADSL","WEIGHTBL","Baseline Weight (kg)","",87.1,"",null,"70.00","14.65","69.20","41.70","108.00"],[1513,6,81,"Xanomeline High Dose","01-703-1076","ADSL","WEIGHTBL","Baseline Weight (kg)","",87.1,"",null,"70.00","14.65","69.20","41.70","108.00"],[1514,6,81,"Xanomeline High Dose","01-708-1336","ADSL","WEIGHTBL","Baseline Weight (kg)","",87.5,"",null,"70.00","14.65","69.20","41.70","108.00"],[1515,6,81,"Xanomeline High Dose","01-704-1266","ADSL","WEIGHTBL","Baseline Weight (kg)","",88.5,"",null,"70.00","14.65","69.20","41.70","108.00"],[1516,6,81,"Xanomeline High Dose","01-708-1372","ADSL","WEIGHTBL","Baseline Weight (kg)","",88.9,"",null,"70.00","14.65","69.20","41.70","108.00"],[1517,6,81,"Xanomeline High Dose","01-710-1354","ADSL","WEIGHTBL","Baseline Weight (kg)","",89.4,"",null,"70.00","14.65","69.20","41.70","108.00"],[1518,6,81,"Xanomeline High Dose","01-701-1180","ADSL","WEIGHTBL","Baseline Weight (kg)","",89.8,"",null,"70.00","14.65","69.20","41.70","108.00"],[1519,6,81,"Xanomeline High Dose","01-714-1425","ADSL","WEIGHTBL","Baseline Weight (kg)","",91.6,"",null,"70.00","14.65","69.20","41.70","108.00"],[1520,6,81,"Xanomeline High Dose","01-701-1239","ADSL","WEIGHTBL","Baseline Weight (kg)","",95.9,"",null,"70.00","14.65","69.20","41.70","108.00"],[1521,6,81,"Xanomeline High Dose","01-705-1382","ADSL","WEIGHTBL","Baseline Weight (kg)","",96.2,"",null,"70.00","14.65","69.20","41.70","108.00"],[1522,6,81,"Xanomeline High Dose","01-701-1028","ADSL","WEIGHTBL","Baseline Weight (kg)","",99.3,"",null,"70.00","14.65","69.20","41.70","108.00"],[1523,6,81,"Xanomeline High Dose","01-701-1444","ADSL","WEIGHTBL","Baseline Weight (kg)","",101.6,"",null,"70.00","14.65","69.20","41.70","108.00"],[1524,6,81,"Xanomeline High Dose","01-710-1408","ADSL","WEIGHTBL","Baseline Weight (kg)","",108,"",null,"70.00","14.65","69.20","41.70","108.00"],[1525,7,0,"Placebo","01-704-1127","ADSL","BMIBL","Baseline BMI (kg/m^2)","",15.1,"",null,"23.64","3.67","23.40","15.10","33.30"],[1526,7,0,"Placebo","01-710-1368","ADSL","BMIBL","Baseline BMI (kg/m^2)","",15.7,"",null,"23.64","3.67","23.40","15.10","33.30"],[1527,7,0,"Placebo","01-710-1078","ADSL","BMIBL","Baseline BMI (kg/m^2)","",18,"",null,"23.64","3.67","23.40","15.10","33.30"],[1528,7,0,"Placebo","01-709-1306","ADSL","BMIBL","Baseline BMI (kg/m^2)","",18.5,"",null,"23.64","3.67","23.40","15.10","33.30"],[1529,7,0,"Placebo","01-710-1077","ADSL","BMIBL","Baseline BMI (kg/m^2)","",18.5,"",null,"23.64","3.67","23.40","15.10","33.30"],[1530,7,0,"Placebo","01-701-1345","ADSL","BMIBL","Baseline BMI (kg/m^2)","",18.6,"",null,"23.64","3.67","23.40","15.10","33.30"],[1531,7,0,"Placebo","01-704-1388","ADSL","BMIBL","Baseline BMI (kg/m^2)","",18.8,"",null,"23.64","3.67","23.40","15.10","33.30"],[1532,7,0,"Placebo","01-710-1083","ADSL","BMIBL","Baseline BMI (kg/m^2)","",19,"",null,"23.64","3.67","23.40","15.10","33.30"],[1533,7,0,"Placebo","01-704-1260","ADSL","BMIBL","Baseline BMI (kg/m^2)","",19.1,"",null,"23.64","3.67","23.40","15.10","33.30"],[1534,7,0,"Placebo","01-703-1299","ADSL","BMIBL","Baseline BMI (kg/m^2)","",19.2,"",null,"23.64","3.67","23.40","15.10","33.30"],[1535,7,0,"Placebo","01-705-1186","ADSL","BMIBL","Baseline BMI (kg/m^2)","",19.7,"",null,"23.64","3.67","23.40","15.10","33.30"],[1536,7,0,"Placebo","01-704-1164","ADSL","BMIBL","Baseline BMI (kg/m^2)","",20.1,"",null,"23.64","3.67","23.40","15.10","33.30"],[1537,7,0,"Placebo","01-701-1440","ADSL","BMIBL","Baseline BMI (kg/m^2)","",20.2,"",null,"23.64","3.67","23.40","15.10","33.30"],[1538,7,0,"Placebo","01-713-1179","ADSL","BMIBL","Baseline BMI (kg/m^2)","",20.3,"",null,"23.64","3.67","23.40","15.10","33.30"],[1539,7,0,"Placebo","01-708-1342","ADSL","BMIBL","Baseline BMI (kg/m^2)","",20.4,"",null,"23.64","3.67","23.40","15.10","33.30"],[1540,7,0,"Placebo","01-705-1059","ADSL","BMIBL","Baseline BMI (kg/m^2)","",20.4,"",null,"23.64","3.67","23.40","15.10","33.30"],[1541,7,0,"Placebo","01-718-1355","ADSL","BMIBL","Baseline BMI (kg/m^2)","",20.8,"",null,"23.64","3.67","23.40","15.10","33.30"],[1542,7,0,"Placebo","01-708-1171","ADSL","BMIBL","Baseline BMI (kg/m^2)","",20.8,"",null,"23.64","3.67","23.40","15.10","33.30"],[1543,7,0,"Placebo","01-709-1312","ADSL","BMIBL","Baseline BMI (kg/m^2)","",20.9,"",null,"23.64","3.67","23.40","15.10","33.30"],[1544,7,0,"Placebo","01-706-1041","ADSL","BMIBL","Baseline BMI (kg/m^2)","",20.9,"",null,"23.64","3.67","23.40","15.10","33.30"],[1545,7,0,"Placebo","01-710-1060","ADSL","BMIBL","Baseline BMI (kg/m^2)","",21,"",null,"23.64","3.67","23.40","15.10","33.30"],[1546,7,0,"Placebo","01-710-1271","ADSL","BMIBL","Baseline BMI (kg/m^2)","",21.2,"",null,"23.64","3.67","23.40","15.10","33.30"],[1547,7,0,"Placebo","01-705-1349","ADSL","BMIBL","Baseline BMI (kg/m^2)","",21.2,"",null,"23.64","3.67","23.40","15.10","33.30"],[1548,7,0,"Placebo","01-710-1183","ADSL","BMIBL","Baseline BMI (kg/m^2)","",21.2,"",null,"23.64","3.67","23.40","15.10","33.30"],[1549,7,0,"Placebo","01-704-1233","ADSL","BMIBL","Baseline BMI (kg/m^2)","",21.3,"",null,"23.64","3.67","23.40","15.10","33.30"],[1550,7,0,"Placebo","01-715-1207","ADSL","BMIBL","Baseline BMI (kg/m^2)","",21.3,"",null,"23.64","3.67","23.40","15.10","33.30"],[1551,7,0,"Placebo","01-717-1344","ADSL","BMIBL","Baseline BMI (kg/m^2)","",21.7,"",null,"23.64","3.67","23.40","15.10","33.30"],[1552,7,0,"Placebo","01-703-1100","ADSL","BMIBL","Baseline BMI (kg/m^2)","",21.8,"",null,"23.64","3.67","23.40","15.10","33.30"],[1553,7,0,"Placebo","01-709-1259","ADSL","BMIBL","Baseline BMI (kg/m^2)","",21.9,"",null,"23.64","3.67","23.40","15.10","33.30"],[1554,7,0,"Placebo","01-701-1118","ADSL","BMIBL","Baseline BMI (kg/m^2)","",21.9,"",null,"23.64","3.67","23.40","15.10","33.30"],[1555,7,0,"Placebo","01-718-1172","ADSL","BMIBL","Baseline BMI (kg/m^2)","",21.9,"",null,"23.64","3.67","23.40","15.10","33.30"],[1556,7,0,"Placebo","01-713-1269","ADSL","BMIBL","Baseline BMI (kg/m^2)","",21.9,"",null,"23.64","3.67","23.40","15.10","33.30"],[1557,7,0,"Placebo","01-708-1253","ADSL","BMIBL","Baseline BMI (kg/m^2)","",22.1,"",null,"23.64","3.67","23.40","15.10","33.30"],[1558,7,0,"Placebo","01-718-1139","ADSL","BMIBL","Baseline BMI (kg/m^2)","",22.4,"",null,"23.64","3.67","23.40","15.10","33.30"],[1559,7,0,"Placebo","01-701-1387","ADSL","BMIBL","Baseline BMI (kg/m^2)","",22.5,"",null,"23.64","3.67","23.40","15.10","33.30"],[1560,7,0,"Placebo","01-718-1150","ADSL","BMIBL","Baseline BMI (kg/m^2)","",22.5,"",null,"23.64","3.67","23.40","15.10","33.30"],[1561,7,0,"Placebo","01-710-1314","ADSL","BMIBL","Baseline BMI (kg/m^2)","",22.6,"",null,"23.64","3.67","23.40","15.10","33.30"],[1562,7,0,"Placebo","01-705-1018","ADSL","BMIBL","Baseline BMI (kg/m^2)","",22.6,"",null,"23.64","3.67","23.40","15.10","33.30"],[1563,7,0,"Placebo","01-716-1024","ADSL","BMIBL","Baseline BMI (kg/m^2)","",22.7,"",null,"23.64","3.67","23.40","15.10","33.30"],[1564,7,0,"Placebo","01-704-1445","ADSL","BMIBL","Baseline BMI (kg/m^2)","",22.8,"",null,"23.64","3.67","23.40","15.10","33.30"],[1565,7,0,"Placebo","01-715-1155","ADSL","BMIBL","Baseline BMI (kg/m^2)","",23.3,"",null,"23.64","3.67","23.40","15.10","33.30"],[1566,7,0,"Placebo","01-708-1316","ADSL","BMIBL","Baseline BMI (kg/m^2)","",23.4,"",null,"23.64","3.67","23.40","15.10","33.30"],[1567,7,0,"Placebo","01-701-1234","ADSL","BMIBL","Baseline BMI (kg/m^2)","",23.4,"",null,"23.64","3.67","23.40","15.10","33.30"],[1568,7,0,"Placebo","01-711-1036","ADSL","BMIBL","Baseline BMI (kg/m^2)","",23.4,"",null,"23.64","3.67","23.40","15.10","33.30"],[1569,7,0,"Placebo","01-703-1042","ADSL","BMIBL","Baseline BMI (kg/m^2)","",23.5,"",null,"23.64","3.67","23.40","15.10","33.30"],[1570,7,0,"Placebo","01-709-1301","ADSL","BMIBL","Baseline BMI (kg/m^2)","",23.6,"",null,"23.64","3.67","23.40","15.10","33.30"],[1571,7,0,"Placebo","01-716-1308","ADSL","BMIBL","Baseline BMI (kg/m^2)","",23.6,"",null,"23.64","3.67","23.40","15.10","33.30"],[1572,7,0,"Placebo","01-713-1256","ADSL","BMIBL","Baseline BMI (kg/m^2)","",23.7,"",null,"23.64","3.67","23.40","15.10","33.30"],[1573,7,0,"Placebo","01-703-1210","ADSL","BMIBL","Baseline BMI (kg/m^2)","",23.8,"",null,"23.64","3.67","23.40","15.10","33.30"],[1574,7,0,"Placebo","01-701-1153","ADSL","BMIBL","Baseline BMI (kg/m^2)","",23.8,"",null,"23.64","3.67","23.40","15.10","33.30"],[1575,7,0,"Placebo","01-704-1351","ADSL","BMIBL","Baseline BMI (kg/m^2)","",23.9,"",null,"23.64","3.67","23.40","15.10","33.30"],[1576,7,0,"Placebo","01-716-1160","ADSL","BMIBL","Baseline BMI (kg/m^2)","",24.1,"",null,"23.64","3.67","23.40","15.10","33.30"],[1577,7,0,"Placebo","01-710-1315","ADSL","BMIBL","Baseline BMI (kg/m^2)","",24.2,"",null,"23.64","3.67","23.40","15.10","33.30"],[1578,7,0,"Placebo","01-708-1378","ADSL","BMIBL","Baseline BMI (kg/m^2)","",24.3,"",null,"23.64","3.67","23.40","15.10","33.30"],[1579,7,0,"Placebo","01-710-1027","ADSL","BMIBL","Baseline BMI (kg/m^2)","",24.4,"",null,"23.64","3.67","23.40","15.10","33.30"],[1580,7,0,"Placebo","01-714-1035","ADSL","BMIBL","Baseline BMI (kg/m^2)","",24.6,"",null,"23.64","3.67","23.40","15.10","33.30"],[1581,7,0,"Placebo","01-707-1206","ADSL","BMIBL","Baseline BMI (kg/m^2)","",24.6,"",null,"23.64","3.67","23.40","15.10","33.30"],[1582,7,0,"Placebo","01-709-1088","ADSL","BMIBL","Baseline BMI (kg/m^2)","",24.8,"",null,"23.64","3.67","23.40","15.10","33.30"],[1583,7,0,"Placebo","01-701-1363","ADSL","BMIBL","Baseline BMI (kg/m^2)","",24.9,"",null,"23.64","3.67","23.40","15.10","33.30"],[1584,7,0,"Placebo","01-701-1415","ADSL","BMIBL","Baseline BMI (kg/m^2)","",25,"",null,"23.64","3.67","23.40","15.10","33.30"],[1585,7,0,"Placebo","01-701-1015","ADSL","BMIBL","Baseline BMI (kg/m^2)","",25.1,"",null,"23.64","3.67","23.40","15.10","33.30"],[1586,7,0,"Placebo","01-709-1001","ADSL","BMIBL","Baseline BMI (kg/m^2)","",25.2,"",null,"23.64","3.67","23.40","15.10","33.30"],[1587,7,0,"Placebo","01-709-1339","ADSL","BMIBL","Baseline BMI (kg/m^2)","",25.4,"",null,"23.64","3.67","23.40","15.10","33.30"],[1588,7,0,"Placebo","01-714-1375","ADSL","BMIBL","Baseline BMI (kg/m^2)","",25.6,"",null,"23.64","3.67","23.40","15.10","33.30"],[1589,7,0,"Placebo","01-704-1010","ADSL","BMIBL","Baseline BMI (kg/m^2)","",25.6,"",null,"23.64","3.67","23.40","15.10","33.30"],[1590,7,0,"Placebo","01-701-1203","ADSL","BMIBL","Baseline BMI (kg/m^2)","",25.9,"",null,"23.64","3.67","23.40","15.10","33.30"],[1591,7,0,"Placebo","01-716-1108","ADSL","BMIBL","Baseline BMI (kg/m^2)","",26,"",null,"23.64","3.67","23.40","15.10","33.30"],[1592,7,0,"Placebo","01-717-1201","ADSL","BMIBL","Baseline BMI (kg/m^2)","",26.6,"",null,"23.64","3.67","23.40","15.10","33.30"],[1593,7,0,"Placebo","01-703-1175","ADSL","BMIBL","Baseline BMI (kg/m^2)","",26.6,"",null,"23.64","3.67","23.40","15.10","33.30"],[1594,7,0,"Placebo","01-708-1087","ADSL","BMIBL","Baseline BMI (kg/m^2)","",26.9,"",null,"23.64","3.67","23.40","15.10","33.30"],[1595,7,0,"Placebo","01-704-1435","ADSL","BMIBL","Baseline BMI (kg/m^2)","",27.1,"",null,"23.64","3.67","23.40","15.10","33.30"],[1596,7,0,"Placebo","01-716-1177","ADSL","BMIBL","Baseline BMI (kg/m^2)","",27.3,"",null,"23.64","3.67","23.40","15.10","33.30"],[1597,7,0,"Placebo","01-716-1441","ADSL","BMIBL","Baseline BMI (kg/m^2)","",27.5,"",null,"23.64","3.67","23.40","15.10","33.30"],[1598,7,0,"Placebo","01-701-1130","ADSL","BMIBL","Baseline BMI (kg/m^2)","",27.6,"",null,"23.64","3.67","23.40","15.10","33.30"],[1599,7,0,"Placebo","01-708-1158","ADSL","BMIBL","Baseline BMI (kg/m^2)","",27.8,"",null,"23.64","3.67","23.40","15.10","33.30"],[1600,7,0,"Placebo","01-708-1296","ADSL","BMIBL","Baseline BMI (kg/m^2)","",27.9,"",null,"23.64","3.67","23.40","15.10","33.30"],[1601,7,0,"Placebo","01-716-1044","ADSL","BMIBL","Baseline BMI (kg/m^2)","",28.9,"",null,"23.64","3.67","23.40","15.10","33.30"],[1602,7,0,"Placebo","01-715-1397","ADSL","BMIBL","Baseline BMI (kg/m^2)","",28.9,"",null,"23.64","3.67","23.40","15.10","33.30"],[1603,7,0,"Placebo","01-701-1392","ADSL","BMIBL","Baseline BMI (kg/m^2)","",28.9,"",null,"23.64","3.67","23.40","15.10","33.30"],[1604,7,0,"Placebo","01-710-1264","ADSL","BMIBL","Baseline BMI (kg/m^2)","",29.1,"",null,"23.64","3.67","23.40","15.10","33.30"],[1605,7,0,"Placebo","01-705-1282","ADSL","BMIBL","Baseline BMI (kg/m^2)","",30.4,"",null,"23.64","3.67","23.40","15.10","33.30"],[1606,7,0,"Placebo","01-701-1047","ADSL","BMIBL","Baseline BMI (kg/m^2)","",30.4,"",null,"23.64","3.67","23.40","15.10","33.30"],[1607,7,0,"Placebo","01-701-1023","ADSL","BMIBL","Baseline BMI (kg/m^2)","",30.4,"",null,"23.64","3.67","23.40","15.10","33.30"],[1608,7,0,"Placebo","01-703-1096","ADSL","BMIBL","Baseline BMI (kg/m^2)","",31.7,""