{"creationDateTime":"2024-02-14T11:46:28","datasetJSONVersion":"1.0.0","fileOID":"CDISCPILOT01.t14_3_01_map","clinicalData":{"studyOID":"CDISCPILOT01","metaDataVersionOID":"MDV.CDISCPILOT01","itemGroupData":{"IG.T14_3_01_MAP":{"records":1872,"name":"T14_3_01_MAP","label":"Table 14_3_01 - Adascog","items":[{"OID":"ITEMGROUPDATASEQ","name":"ITEMGROUPDATASEQ","label":"Record Identifier","type":"integer"},{"OID":"IT.T14_3_01_MAP.ORDVAR","name":"ordvar","label":"Ordvar","type":"float","length":8,"displayFormat":"."},{"OID":"IT.T14_3_01_MAP.TRT01PN","name":"TRT01PN","label":"Planned Treatment for Period 01 (N)","type":"float","length":8,"displayFormat":"."},{"OID":"IT.T14_3_01_MAP.TRT01P","name":"TRT01P","label":"Planned Treatment for Period 01","type":"string","length":20,"displayFormat":"."},{"OID":"IT.T14_3_01_MAP.AVISITN","name":"AVISITN","label":"Analysis Visit (N)","type":"float","length":8,"displayFormat":"."},{"OID":"IT.T14_3_01_MAP.AVISIT","name":"AVISIT","label":"Analysis Visit","type":"string","length":8,"displayFormat":"."},{"OID":"IT.T14_3_01_MAP.SITEGR1","name":"SITEGR1","label":"Pooled Site Group 1","type":"string","length":3,"displayFormat":"."},{"OID":"IT.T14_3_01_MAP.USUBJID","name":"USUBJID","label":"Unique Subject Identifier","type":"string","length":11,"displayFormat":"."},{"OID":"IT.T14_3_01_MAP.SRCDOM","name":"SRCDOM","label":"Source Data","type":"string","length":10,"displayFormat":"."},{"OID":"IT.T14_3_01_MAP.SRCVAR","name":"SRCVAR","label":"Source Variable","type":"string","length":25,"displayFormat":"."},{"OID":"IT.T14_3_01_MAP.SRCVLABL","name":"SRCVLABL","label":"Source Variable Label","type":"string","length":65,"displayFormat":"."},{"OID":"IT.T14_3_01_MAP.AVAL","name":"AVAL","label":"Analysis Value","type":"float","length":8,"displayFormat":"."},{"OID":"IT.T14_3_01_MAP.BASE","name":"BASE","label":"Baseline Value","type":"float","length":8,"displayFormat":"."},{"OID":"IT.T14_3_01_MAP.CHG","name":"CHG","label":"Change from Baseline","type":"float","length":8,"displayFormat":"."},{"OID":"IT.T14_3_01_MAP.EFFFL","name":"EFFFL","label":"Efficacy Population Flag","type":"string","length":1,"displayFormat":"."},{"OID":"IT.T14_3_01_MAP.ABLFL","name":"ABLFL","label":"Baseline Record Flag","type":"string","length":1,"displayFormat":"."},{"OID":"IT.T14_3_01_MAP.ANL01FL","name":"ANL01FL","label":"Analysis Flag 01","type":"string","length":1,"displayFormat":"."},{"OID":"IT.T14_3_01_MAP.T_N","name":"T_N","label":"Frequency Count","type":"float","length":8,"displayFormat":"."},{"OID":"IT.T14_3_01_MAP.T_MEAN","name":"T_MEAN","label":"Analysis Value","type":"float","length":8,"displayFormat":"."},{"OID":"IT.T14_3_01_MAP.T_SD","name":"T_SD","label":"Analysis Value","type":"float","length":8,"displayFormat":"5.2"},{"OID":"IT.T14_3_01_MAP.T_MEDIAN","name":"T_MEDIAN","label":"Analysis Value","type":"float","length":8,"displayFormat":"."},{"OID":"IT.T14_3_01_MAP.T_MIN","name":"T_MIN","label":"Analysis Value","type":"float","length":8,"displayFormat":"."},{"OID":"IT.T14_3_01_MAP.T_MAX","name":"T_MAX","label":"Analysis Value","type":"float","length":8,"displayFormat":"."},{"OID":"IT.T14_3_01_MAP.T_PVALUE","name":"T_PVALUE","label":"T_pvalue","type":"float","length":8,"displayFormat":"."},{"OID":"IT.T14_3_01_MAP.T_LSMEANDIFF","name":"T_LSMEANDIFF","label":"T_lsmeandiff","type":"float","length":8,"displayFormat":"."},{"OID":"IT.T14_3_01_MAP.T_LSMEANDIFFSE","name":"T_LSMEANDIFFSE","label":"T_lsmeandiffse","type":"float","length":8,"displayFormat":"."},{"OID":"IT.T14_3_01_MAP.T_LSMEANDIFFLCI","name":"T_LSMEANDIFFLCI","label":"T_lsmeandifflci","type":"float","length":8,"displayFormat":"."},{"OID":"IT.T14_3_01_MAP.T_LSMEANDIFFUCI","name":"T_LSMEANDIFFUCI","label":"T_lsmeandiffuci","type":"float","length":8,"displayFormat":"."}],"itemData":[[1,1,0,"Placebo",null,"","","01-701-1153","ADSL","EFFFL","Efficacy Population Flag",null,null,null,"Y","","",79,null,null,null,null,null,null,null,null,null,null],[2,1,0,"Placebo",null,"","","01-705-1059","ADSL","EFFFL","Efficacy Population Flag",null,null,null,"Y","","",79,null,null,null,null,null,null,null,null,null,null],[3,1,0,"Placebo",null,"","","01-709-1001","ADSL","EFFFL","Efficacy Population Flag",null,null,null,"Y","","",79,null,null,null,null,null,null,null,null,null,null],[4,1,0,"Placebo",null,"","","01-701-1345","ADSL","EFFFL","Efficacy Population Flag",null,null,null,"Y","","",79,null,null,null,null,null,null,null,null,null,null],[5,1,0,"Placebo",null,"","","01-716-1026","ADSL","EFFFL","Efficacy Population Flag",null,null,null,"Y","","",79,null,null,null,null,null,null,null,null,null,null],[6,1,0,"Placebo",null,"","","01-718-1139","ADSL","EFFFL","Efficacy Population Flag",null,null,null,"Y","","",79,null,null,null,null,null,null,null,null,null,null],[7,1,0,"Placebo",null,"","","01-715-1207","ADSL","EFFFL","Efficacy Population Flag",null,null,null,"Y","","",79,null,null,null,null,null,null,null,null,null,null],[8,1,0,"Placebo",null,"","","01-709-1306","ADSL","EFFFL","Efficacy Population Flag",null,null,null,"Y","","",79,null,null,null,null,null,null,null,null,null,null],[9,1,0,"Placebo",null,"","","01-704-1435","ADSL","EFFFL","Efficacy Population Flag",null,null,null,"Y","","",79,null,null,null,null,null,null,null,null,null,null],[10,1,0,"Placebo",null,"","","01-704-1010","ADSL","EFFFL","Efficacy Population Flag",null,null,null,"Y","","",79,null,null,null,null,null,null,null,null,null,null],[11,1,0,"Placebo",null,"","","01-708-1342","ADSL","EFFFL","Efficacy Population Flag",null,null,null,"Y","","",79,null,null,null,null,null,null,null,null,null,null],[12,1,0,"Placebo",null,"","","01-710-1027","ADSL","EFFFL","Efficacy Population Flag",null,null,null,"Y","","",79,null,null,null,null,null,null,null,null,null,null],[13,1,0,"Placebo",null,"","","01-711-1036","ADSL","EFFFL","Efficacy Population Flag",null,null,null,"Y","","",79,null,null,null,null,null,null,null,null,null,null],[14,1,0,"Placebo",null,"","","01-718-1150","ADSL","EFFFL","Efficacy Population Flag",null,null,null,"Y","","",79,null,null,null,null,null,null,null,null,null,null],[15,1,0,"Placebo",null,"","","01-708-1296","ADSL","EFFFL","Efficacy Population Flag",null,null,null,"Y","","",79,null,null,null,null,null,null,null,null,null,null],[16,1,0,"Placebo",null,"","","01-709-1088","ADSL","EFFFL","Efficacy Population Flag",null,null,null,"Y","","",79,null,null,null,null,null,null,null,null,null,null],[17,1,0,"Placebo",null,"","","01-705-1349","ADSL","EFFFL","Efficacy Population Flag",null,null,null,"Y","","",79,null,null,null,null,null,null,null,null,null,null],[18,1,0,"Placebo",null,"","","01-704-1127","ADSL","EFFFL","Efficacy Population Flag",null,null,null,"Y","","",79,null,null,null,null,null,null,null,null,null,null],[19,1,0,"Placebo",null,"","","01-703-1299","ADSL","EFFFL","Efficacy Population Flag",null,null,null,"Y","","",79,null,null,null,null,null,null,null,null,null,null],[20,1,0,"Placebo",null,"","","01-718-1355","ADSL","EFFFL","Efficacy Population Flag",null,null,null,"Y","","",79,null,null,null,null,null,null,null,null,null,null],[21,1,0,"Placebo",null,"","","01-701-1047","ADSL","EFFFL","Efficacy Population Flag",null,null,null,"Y","","",79,null,null,null,null,null,null,null,null,null,null],[22,1,0,"Placebo",null,"","","01-716-1160","ADSL","EFFFL","Efficacy Population Flag",null,null,null,"Y","","",79,null,null,null,null,null,null,null,null,null,null],[23,1,0,"Placebo",null,"","","01-713-1179","ADSL","EFFFL","Efficacy Population Flag",null,null,null,"Y","","",79,null,null,null,null,null,null,null,null,null,null],[24,1,0,"Placebo",null,"","","01-701-1387","ADSL","EFFFL","Efficacy Population Flag",null,null,null,"Y","","",79,null,null,null,null,null,null,null,null,null,null],[25,1,0,"Placebo",null,"","","01-716-1308","ADSL","EFFFL","Efficacy Population Flag",null,null,null,"Y","","",79,null,null,null,null,null,null,null,null,null,null],[26,1,0,"Placebo",null,"","","01-709-1301","ADSL","EFFFL","Efficacy Population Flag",null,null,null,"Y","","",79,null,null,null,null,null,null,null,null,null,null],[27,1,0,"Placebo",null,"","","01-717-1344","ADSL","EFFFL","Efficacy Population Flag",null,null,null,"Y","","",79,null,null,null,null,null,null,null,null,null,null],[28,1,0,"Placebo",null,"","","01-708-1087","ADSL","EFFFL","Efficacy Population Flag",null,null,null,"Y","","",79,null,null,null,null,null,null,null,null,null,null],[29,1,0,"Placebo",null,"","","01-718-1139","ADSL","EFFFL","Efficacy Population Flag",null,null,null,"Y","","",79,null,null,null,null,null,null,null,null,null,null],[30,1,0,"Placebo",null,"","","01-701-1015","ADSL","EFFFL","Efficacy Population Flag",null,null,null,"Y","","",79,null,null,null,null,null,null,null,null,null,null],[31,1,0,"Placebo",null,"","","01-717-1201","ADSL","EFFFL","Efficacy Population Flag",null,null,null,"Y","","",79,null,null,null,null,null,null,null,null,null,null],[32,1,0,"Placebo",null,"","","01-708-1171","ADSL","EFFFL","Efficacy Population Flag",null,null,null,"Y","","",79,null,null,null,null,null,null,null,null,null,null],[33,1,0,"Placebo",null,"","","01-706-1041","ADSL","EFFFL","Efficacy Population Flag",null,null,null,"Y","","",79,null,null,null,null,null,null,null,null,null,null],[34,1,0,"Placebo",null,"","","01-705-1282","ADSL","EFFFL","Efficacy Population Flag",null,null,null,"Y","","",79,null,null,null,null,null,null,null,null,null,null],[35,1,0,"Placebo",null,"","","01-709-1001","ADSL","EFFFL","Efficacy Population Flag",null,null,null,"Y","","",79,null,null,null,null,null,null,null,null,null,null],[36,1,0,"Placebo",null,"","","01-709-1339","ADSL","EFFFL","Efficacy Population Flag",null,null,null,"Y","","",79,null,null,null,null,null,null,null,null,null,null],[37,1,0,"Placebo",null,"","","01-716-1108","ADSL","EFFFL","Efficacy Population Flag",null,null,null,"Y","","",79,null,null,null,null,null,null,null,null,null,null],[38,1,0,"Placebo",null,"","","01-701-1415","ADSL","EFFFL","Efficacy Population Flag",null,null,null,"Y","","",79,null,null,null,null,null,null,null,null,null,null],[39,1,0,"Placebo",null,"","","01-710-1264","ADSL","EFFFL","Efficacy Population Flag",null,null,null,"Y","","",79,null,null,null,null,null,null,null,null,null,null],[40,1,0,"Placebo",null,"","","01-701-1203","ADSL","EFFFL","Efficacy Population Flag",null,null,null,"Y","","",79,null,null,null,null,null,null,null,null,null,null],[41,1,0,"Placebo",null,"","","01-701-1130","ADSL","EFFFL","Efficacy Population Flag",null,null,null,"Y","","",79,null,null,null,null,null,null,null,null,null,null],[42,1,0,"Placebo",null,"","","01-708-1316","ADSL","EFFFL","Efficacy Population Flag",null,null,null,"Y","","",79,null,null,null,null,null,null,null,null,null,null],[43,1,0,"Placebo",null,"","","01-704-1445","ADSL","EFFFL","Efficacy Population Flag",null,null,null,"Y","","",79,null,null,null,null,null,null,null,null,null,null],[44,1,0,"Placebo",null,"","","01-703-1100","ADSL","EFFFL","Efficacy Population Flag",null,null,null,"Y","","",79,null,null,null,null,null,null,null,null,null,null],[45,1,0,"Placebo",null,"","","01-718-1172","ADSL","EFFFL","Efficacy Population Flag",null,null,null,"Y","","",79,null,null,null,null,null,null,null,null,null,null],[46,1,0,"Placebo",null,"","","01-708-1087","ADSL","EFFFL","Efficacy Population Flag",null,null,null,"Y","","",79,null,null,null,null,null,null,null,null,null,null],[47,1,0,"Placebo",null,"","","01-701-1118","ADSL","EFFFL","Efficacy Population Flag",null,null,null,"Y","","",79,null,null,null,null,null,null,null,null,null,null],[48,1,0,"Placebo",null,"","","01-709-1312","ADSL","EFFFL","Efficacy Population Flag",null,null,null,"Y","","",79,null,null,null,null,null,null,null,null,null,null],[49,1,0,"Placebo",null,"","","01-716-1441","ADSL","EFFFL","Efficacy Population Flag",null,null,null,"Y","","",79,null,null,null,null,null,null,null,null,null,null],[50,1,0,"Placebo",null,"","","01-709-1301","ADSL","EFFFL","Efficacy Population Flag",null,null,null,"Y","","",79,null,null,null,null,null,null,null,null,null,null],[51,1,0,"Placebo",null,"","","01-707-1206","ADSL","EFFFL","Efficacy Population Flag",null,null,null,"Y","","",79,null,null,null,null,null,null,null,null,null,null],[52,1,0,"Placebo",null,"","","01-704-1351","ADSL","EFFFL","Efficacy Population Flag",null,null,null,"Y","","",79,null,null,null,null,null,null,null,null,null,null],[53,1,0,"Placebo",null,"","","01-705-1282","ADSL","EFFFL","Efficacy Population Flag",null,null,null,"Y","","",79,null,null,null,null,null,null,null,null,null,null],[54,1,0,"Placebo",null,"","","01-704-1164","ADSL","EFFFL","Efficacy Population Flag",null,null,null,"Y","","",79,null,null,null,null,null,null,null,null,null,null],[55,1,0,"Placebo",null,"","","01-708-1253","ADSL","EFFFL","Efficacy Population Flag",null,null,null,"Y","","",79,null,null,null,null,null,null,null,null,null,null],[56,1,0,"Placebo",null,"","","01-714-1035","ADSL","EFFFL","Efficacy Population Flag",null,null,null,"Y","","",79,null,null,null,null,null,null,null,null,null,null],[57,1,0,"Placebo",null,"","","01-708-1378","ADSL","EFFFL","Efficacy Population Flag",null,null,null,"Y","","",79,null,null,null,null,null,null,null,null,null,null],[58,1,0,"Placebo",null,"","","01-710-1060","ADSL","EFFFL","Efficacy Population Flag",null,null,null,"Y","","",79,null,null,null,null,null,null,null,null,null,null],[59,1,0,"Placebo",null,"","","01-710-1264","ADSL","EFFFL","Efficacy Population Flag",null,null,null,"Y","","",79,null,null,null,null,null,null,null,null,null,null],[60,1,0,"Placebo",null,"","","01-707-1206","ADSL","EFFFL","Efficacy Population Flag",null,null,null,"Y","","",79,null,null,null,null,null,null,null,null,null,null],[61,1,0,"Placebo",null,"","","01-704-1351","ADSL","EFFFL","Efficacy Population Flag",null,null,null,"Y","","",79,null,null,null,null,null,null,null,null,null,null],[62,1,0,"Placebo",null,"","","01-709-1339","ADSL","EFFFL","Efficacy Population Flag",null,null,null,"Y","","",79,null,null,null,null,null,null,null,null,null,null],[63,1,0,"Placebo",null,"","","01-708-1158","ADSL","EFFFL","Efficacy Population Flag",null,null,null,"Y","","",79,null,null,null,null,null,null,null,null,null,null],[64,1,0,"Placebo",null,"","","01-716-1177","ADSL","EFFFL","Efficacy Population Flag",null,null,null,"Y","","",79,null,null,null,null,null,null,null,null,null,null],[65,1,0,"Placebo",null,"","","01-708-1253","ADSL","EFFFL","Efficacy Population Flag",null,null,null,"Y","","",79,null,null,null,null,null,null,null,null,null,null],[66,1,0,"Placebo",null,"","","01-701-1234","ADSL","EFFFL","Efficacy Population Flag",null,null,null,"Y","","",79,null,null,null,null,null,null,null,null,null,null],[67,1,0,"Placebo",null,"","","01-710-1077","ADSL","EFFFL","Efficacy Population Flag",null,null,null,"Y","","",79,null,null,null,null,null,null,null,null,null,null],[68,1,0,"Placebo",null,"","","01-716-1177","ADSL","EFFFL","Efficacy Population Flag",null,null,null,"Y","","",79,null,null,null,null,null,null,null,null,null,null],[69,1,0,"Placebo",null,"","","01-708-1286","ADSL","EFFFL","Efficacy Population Flag",null,null,null,"Y","","",79,null,null,null,null,null,null,null,null,null,null],[70,1,0,"Placebo",null,"","","01-701-1118","ADSL","EFFFL","Efficacy Population Flag",null,null,null,"Y","","",79,null,null,null,null,null,null,null,null,null,null],[71,1,0,"Placebo",null,"","","01-709-1306","ADSL","EFFFL","Efficacy Population Flag",null,null,null,"Y","","",79,null,null,null,null,null,null,null,null,null,null],[72,1,0,"Placebo",null,"","","01-708-1296","ADSL","EFFFL","Efficacy Population Flag",null,null,null,"Y","","",79,null,null,null,null,null,null,null,null,null,null],[73,1,0,"Placebo",null,"","","01-704-1435","ADSL","EFFFL","Efficacy Population Flag",null,null,null,"Y","","",79,null,null,null,null,null,null,null,null,null,null],[74,1,0,"Placebo",null,"","","01-717-1201","ADSL","EFFFL","Efficacy Population Flag",null,null,null,"Y","","",79,null,null,null,null,null,null,null,null,null,null],[75,1,0,"Placebo",null,"","","01-709-1088","ADSL","EFFFL","Efficacy Population Flag",null,null,null,"Y","","",79,null,null,null,null,null,null,null,null,null,null],[76,1,0,"Placebo",null,"","","01-713-1256","ADSL","EFFFL","Efficacy Population Flag",null,null,null,"Y","","",79,null,null,null,null,null,null,null,null,null,null],[77,1,0,"Placebo",null,"","","01-716-1160","ADSL","EFFFL","Efficacy Population Flag",null,null,null,"Y","","",79,null,null,null,null,null,null,null,null,null,null],[78,1,0,"Placebo",null,"","","01-701-1387","ADSL","EFFFL","Efficacy Population Flag",null,null,null,"Y","","",79,null,null,null,null,null,null,null,null,null,null],[79,1,0,"Placebo",null,"","","01-704-1010","ADSL","EFFFL","Efficacy Population Flag",null,null,null,"Y","","",79,null,null,null,null,null,null,null,null,null,null],[80,1,0,"Placebo",null,"","","01-708-1378","ADSL","EFFFL","Efficacy Population Flag",null,null,null,"Y","","",79,null,null,null,null,null,null,null,null,null,null],[81,1,0,"Placebo",null,"","","01-713-1256","ADSL","EFFFL","Efficacy Population Flag",null,null,null,"Y","","",79,null,null,null,null,null,null,null,null,null,null],[82,1,0,"Placebo",null,"","","01-705-1059","ADSL","EFFFL","Efficacy Population Flag",null,null,null,"Y","","",79,null,null,null,null,null,null,null,null,null,null],[83,1,0,"Placebo",null,"","","01-709-1259","ADSL","EFFFL","Efficacy Population Flag",null,null,null,"Y","","",79,null,null,null,null,null,null,null,null,null,null],[84,1,0,"Placebo",null,"","","01-701-1440","ADSL","EFFFL","Efficacy Population Flag",null,null,null,"Y","","",79,null,null,null,null,null,null,null,null,null,null],[85,1,0,"Placebo",null,"","","01-701-1345","ADSL","EFFFL","Efficacy Population Flag",null,null,null,"Y","","",79,null,null,null,null,null,null,null,null,null,null],[86,1,0,"Placebo",null,"","","01-701-1234","ADSL","EFFFL","Efficacy Population Flag",null,null,null,"Y","","",79,null,null,null,null,null,null,null,null,null,null],[87,1,0,"Placebo",null,"","","01-701-1440","ADSL","EFFFL","Efficacy Population Flag",null,null,null,"Y","","",79,null,null,null,null,null,null,null,null,null,null],[88,1,0,"Placebo",null,"","","01-704-1388","ADSL","EFFFL","Efficacy Population Flag",null,null,null,"Y","","",79,null,null,null,null,null,null,null,null,null,null],[89,1,0,"Placebo",null,"","","01-710-1077","ADSL","EFFFL","Efficacy Population Flag",null,null,null,"Y","","",79,null,null,null,null,null,null,null,null,null,null],[90,1,0,"Placebo",null,"","","01-708-1158","ADSL","EFFFL","Efficacy Population Flag",null,null,null,"Y","","",79,null,null,null,null,null,null,null,null,null,null],[91,1,0,"Placebo",null,"","","01-704-1164","ADSL","EFFFL","Efficacy Population Flag",null,null,null,"Y","","",79,null,null,null,null,null,null,null,null,null,null],[92,1,0,"Placebo",null,"","","01-701-1203","ADSL","EFFFL","Efficacy Population Flag",null,null,null,"Y","","",79,null,null,null,null,null,null,null,null,null,null],[93,1,0,"Placebo",null,"","","01-709-1312","ADSL","EFFFL","Efficacy Population Flag",null,null,null,"Y","","",79,null,null,null,null,null,null,null,null,null,null],[94,1,0,"Placebo",null,"","","01-710-1368","ADSL","EFFFL","Efficacy Population Flag",null,null,null,"Y","","",79,null,null,null,null,null,null,null,null,null,null],[95,1,0,"Placebo",null,"","","01-703-1210","ADSL","EFFFL","Efficacy Population Flag",null,null,null,"Y","","",79,null,null,null,null,null,null,null,null,null,null],[96,1,0,"Placebo",null,"","","01-710-1060","ADSL","EFFFL","Efficacy Population Flag",null,null,null,"Y","","",79,null,null,null,null,null,null,null,null,null,null],[97,1,0,"Placebo",null,"","","01-716-1308","ADSL","EFFFL","Efficacy Population Flag",null,null,null,"Y","","",79,null,null,null,null,null,null,null,null,null,null],[98,1,0,"Placebo",null,"","","01-710-1027","ADSL","EFFFL","Efficacy Population Flag",null,null,null,"Y","","",79,null,null,null,null,null,null,null,null,null,null],[99,1,0,"Placebo",null,"","","01-708-1342","ADSL","EFFFL","Efficacy Population Flag",null,null,null,"Y","","",79,null,null,null,null,null,null,null,null,null,null],[100,1,0,"Placebo",null,"","","01-701-1015","ADSL","EFFFL","Efficacy Population Flag",null,null,null,"Y","","",79,null,null,null,null,null,null,null,null,null,null],[101,1,0,"Placebo",null,"","","01-703-1042","ADSL","EFFFL","Efficacy Population Flag",null,null,null,"Y","","",79,null,null,null,null,null,null,null,null,null,null],[102,1,0,"Placebo",null,"","","01-704-1127","ADSL","EFFFL","Efficacy Population Flag",null,null,null,"Y","","",79,null,null,null,null,null,null,null,null,null,null],[103,1,0,"Placebo",null,"","","01-703-1175","ADSL","EFFFL","Efficacy Population Flag",null,null,null,"Y","","",79,null,null,null,null,null,null,null,null,null,null],[104,1,0,"Placebo",null,"","","01-714-1035","ADSL","EFFFL","Efficacy Population Flag",null,null,null,"Y","","",79,null,null,null,null,null,null,null,null,null,null],[105,1,0,"Placebo",null,"","","01-701-1023","ADSL","EFFFL","Efficacy Population Flag",null,null,null,"Y","","",79,null,null,null,null,null,null,null,null,null,null],[106,1,0,"Placebo",null,"","","01-701-1392","ADSL","EFFFL","Efficacy Population Flag",null,null,null,"Y","","",79,null,null,null,null,null,null,null,null,null,null],[107,1,0,"Placebo",null,"","","01-716-1024","ADSL","EFFFL","Efficacy Population Flag",null,null,null,"Y","","",79,null,null,null,null,null,null,null,null,null,null],[108,1,0,"Placebo",null,"","","01-701-1130","ADSL","EFFFL","Efficacy Population Flag",null,null,null,"Y","","",79,null,null,null,null,null,null,null,null,null,null],[109,1,0,"Placebo",null,"","","01-703-1299","ADSL","EFFFL","Efficacy Population Flag",null,null,null,"Y","","",79,null,null,null,null,null,null,null,null,null,null],[110,1,0,"Placebo",null,"","","01-714-1375","ADSL","EFFFL","Efficacy Population Flag",null,null,null,"Y","","",79,null,null,null,null,null,null,null,null,null,null],[111,1,0,"Placebo",null,"","","01-718-1355","ADSL","EFFFL","Efficacy Population Flag",null,null,null,"Y","","",79,null,null,null,null,null,null,null,null,null,null],[112,1,0,"Placebo",null,"","","01-709-1259","ADSL","EFFFL","Efficacy Population Flag",null,null,null,"Y","","",79,null,null,null,null,null,null,null,null,null,null],[113,1,0,"Placebo",null,"","","01-708-1316","ADSL","EFFFL","Efficacy Population Flag",null,null,null,"Y","","",79,null,null,null,null,null,null,null,null,null,null],[114,1,0,"Placebo",null,"","","01-715-1397","ADSL","EFFFL","Efficacy Population Flag",null,null,null,"Y","","",79,null,null,null,null,null,null,null,null,null,null],[115,1,0,"Placebo",null,"","","01-701-1392","ADSL","EFFFL","Efficacy Population Flag",null,null,null,"Y","","",79,null,null,null,null,null,null,null,null,null,null],[116,1,0,"Placebo",null,"","","01-706-1041","ADSL","EFFFL","Efficacy Population Flag",null,null,null,"Y","","",79,null,null,null,null,null,null,null,null,null,null],[117,1,0,"Placebo",null,"","","01-708-1171","ADSL","EFFFL","Efficacy Population Flag",null,null,null,"Y","","",79,null,null,null,null,null,null,null,null,null,null],[118,1,0,"Placebo",null,"","","01-701-1363","ADSL","EFFFL","Efficacy Population Flag",null,null,null,"Y","","",79,null,null,null,null,null,null,null,null,null,null],[119,1,0,"Placebo",null,"","","01-714-1375","ADSL","EFFFL","Efficacy Population Flag",null,null,null,"Y","","",79,null,null,null,null,null,null,null,null,null,null],[120,1,0,"Placebo",null,"","","01-704-1233","ADSL","EFFFL","Efficacy Population Flag",null,null,null,"Y","","",79,null,null,null,null,null,null,null,null,null,null],[121,1,0,"Placebo",null,"","","01-710-1078","ADSL","EFFFL","Efficacy Population Flag",null,null,null,"Y","","",79,null,null,null,null,null,null,null,null,null,null],[122,1,0,"Placebo",null,"","","01-718-1172","ADSL","EFFFL","Efficacy Population Flag",null,null,null,"Y","","",79,null,null,null,null,null,null,null,null,null,null],[123,1,0,"Placebo",null,"","","01-716-1044","ADSL","EFFFL","Efficacy Population Flag",null,null,null,"Y","","",79,null,null,null,null,null,null,null,null,null,null],[124,1,0,"Placebo",null,"","","01-718-1150","ADSL","EFFFL","Efficacy Population Flag",null,null,null,"Y","","",79,null,null,null,null,null,null,null,null,null,null],[125,1,0,"Placebo",null,"","","01-710-1078","ADSL","EFFFL","Efficacy Population Flag",null,null,null,"Y","","",79,null,null,null,null,null,null,null,null,null,null],[126,1,0,"Placebo",null,"","","01-710-1315","ADSL","EFFFL","Efficacy Population Flag",null,null,null,"Y","","",79,null,null,null,null,null,null,null,null,null,null],[127,1,0,"Placebo",null,"","","01-715-1397","ADSL","EFFFL","Efficacy Population Flag",null,null,null,"Y","","",79,null,null,null,null,null,null,null,null,null,null],[128,1,0,"Placebo",null,"","","01-701-1047","ADSL","EFFFL","Efficacy Population Flag",null,null,null,"Y","","",79,null,null,null,null,null,null,null,null,null,null],[129,1,0,"Placebo",null,"","","01-710-1183","ADSL","EFFFL","Efficacy Population Flag",null,null,null,"Y","","",79,null,null,null,null,null,null,null,null,null,null],[130,1,0,"Placebo",null,"","","01-715-1207","ADSL","EFFFL","Efficacy Population Flag",null,null,null,"Y","","",79,null,null,null,null,null,null,null,null,null,null],[131,1,0,"Placebo",null,"","","01-704-1388","ADSL","EFFFL","Efficacy Population Flag",null,null,null,"Y","","",79,null,null,null,null,null,null,null,null,null,null],[132,1,0,"Placebo",null,"","","01-704-1233","ADSL","EFFFL","Efficacy Population Flag",null,null,null,"Y","","",79,null,null,null,null,null,null,null,null,null,null],[133,1,0,"Placebo",null,"","","01-713-1269","ADSL","EFFFL","Efficacy Population Flag",null,null,null,"Y","","",79,null,null,null,null,null,null,null,null,null,null],[134,1,0,"Placebo",null,"","","01-703-1175","ADSL","EFFFL","Efficacy Population Flag",null,null,null,"Y","","",79,null,null,null,null,null,null,null,null,null,null],[135,1,0,"Placebo",null,"","","01-703-1210","ADSL","EFFFL","Efficacy Population Flag",null,null,null,"Y","","",79,null,null,null,null,null,null,null,null,null,null],[136,1,0,"Placebo",null,"","","01-701-1153","ADSL","EFFFL","Efficacy Population Flag",null,null,null,"Y","","",79,null,null,null,null,null,null,null,null,null,null],[137,1,0,"Placebo",null,"","","01-710-1368","ADSL","EFFFL","Efficacy Population Flag",null,null,null,"Y","","",79,null,null,null,null,null,null,null,null,null,null],[138,1,0,"Placebo",null,"","","01-716-1044","ADSL","EFFFL","Efficacy Population Flag",null,null,null,"Y","","",79,null,null,null,null,null,null,null,null,null,null],[139,1,0,"Placebo",null,"","","01-701-1415","ADSL","EFFFL","Efficacy Population Flag",null,null,null,"Y","","",79,null,null,null,null,null,null,null,null,null,null],[140,1,0,"Placebo",null,"","","01-716-1024","ADSL","EFFFL","Efficacy Population Flag",null,null,null,"Y","","",79,null,null,null,null,null,null,null,null,null,null],[141,1,0,"Placebo",null,"","","01-711-1036","ADSL","EFFFL","Efficacy Population Flag",null,null,null,"Y","","",79,null,null,null,null,null,null,null,null,null,null],[142,1,0,"Placebo",null,"","","01-716-1108","ADSL","EFFFL","Efficacy Population Flag",null,null,null,"Y","","",79,null,null,null,null,null,null,null,null,null,null],[143,1,0,"Placebo",null,"","","01-716-1026","ADSL","EFFFL","Efficacy Population Flag",null,null,null,"Y","","",79,null,null,null,null,null,null,null,null,null,null],[144,1,0,"Placebo",null,"","","01-713-1179","ADSL","EFFFL","Efficacy Population Flag",null,null,null,"Y","","",79,null,null,null,null,null,null,null,null,null,null],[145,1,0,"Placebo",null,"","","01-704-1445","ADSL","EFFFL","Efficacy Population Flag",null,null,null,"Y","","",79,null,null,null,null,null,null,null,null,null,null],[146,1,0,"Placebo",null,"","","01-717-1344","ADSL","EFFFL","Efficacy Population Flag",null,null,null,"Y","","",79,null,null,null,null,null,null,null,null,null,null],[147,1,0,"Placebo",null,"","","01-710-1183","ADSL","EFFFL","Efficacy Population Flag",null,null,null,"Y","","",79,null,null,null,null,null,null,null,null,null,null],[148,1,0,"Placebo",null,"","","01-703-1042","ADSL","EFFFL","Efficacy Population Flag",null,null,null,"Y","","",79,null,null,null,null,null,null,null,null,null,null],[149,1,0,"Placebo",null,"","","01-704-1260","ADSL","EFFFL","Efficacy Population Flag",null,null,null,"Y","","",79,null,null,null,null,null,null,null,null,null,null],[150,1,0,"Placebo",null,"","","01-705-1349","ADSL","EFFFL","Efficacy Population Flag",null,null,null,"Y","","",79,null,null,null,null,null,null,null,null,null,null],[151,1,0,"Placebo",null,"","","01-708-1286","ADSL","EFFFL","Efficacy Population Flag",null,null,null,"Y","","",79,null,null,null,null,null,null,null,null,null,null],[152,1,0,"Placebo",null,"","","01-701-1363","ADSL","EFFFL","Efficacy Population Flag",null,null,null,"Y","","",79,null,null,null,null,null,null,null,null,null,null],[153,1,0,"Placebo",null,"","","01-713-1269","ADSL","EFFFL","Efficacy Population Flag",null,null,null,"Y","","",79,null,null,null,null,null,null,null,null,null,null],[154,1,0,"Placebo",null,"","","01-716-1441","ADSL","EFFFL","Efficacy Population Flag",null,null,null,"Y","","",79,null,null,null,null,null,null,null,null,null,null],[155,1,0,"Placebo",null,"","","01-703-1100","ADSL","EFFFL","Efficacy Population Flag",null,null,null,"Y","","",79,null,null,null,null,null,null,null,null,null,null],[156,1,0,"Placebo",null,"","","01-704-1260","ADSL","EFFFL","Efficacy Population Flag",null,null,null,"Y","","",79,null,null,null,null,null,null,null,null,null,null],[157,1,0,"Placebo",null,"","","01-701-1023","ADSL","EFFFL","Efficacy Population Flag",null,null,null,"Y","","",79,null,null,null,null,null,null,null,null,null,null],[158,1,0,"Placebo",null,"","","01-710-1315","ADSL","EFFFL","Efficacy Population Flag",null,null,null,"Y","","",79,null,null,null,null,null,null,null,null,null,null],[159,1,54,"Xanomeline Low Dose",null,"","","01-703-1086","ADSL","EFFFL","Efficacy Population Flag",null,null,null,"Y","","",81,null,null,null,null,null,null,null,null,null,null],[160,1,54,"Xanomeline Low Dose",null,"","","01-703-1119","ADSL","EFFFL","Efficacy Population Flag",null,null,null,"Y","","",81,null,null,null,null,null,null,null,null,null,null],[161,1,54,"Xanomeline Low Dose",null,"","","01-701-1341","ADSL","EFFFL","Efficacy Population Flag",null,null,null,"Y","","",81,null,null,null,null,null,null,null,null,null,null],[162,1,54,"Xanomeline Low Dose",null,"","","01-718-1254","ADSL","EFFFL","Efficacy Population Flag",null,null,null,"Y","","",81,null,null,null,null,null,null,null,null,null,null],[163,1,54,"Xanomeline Low Dose",null,"","","01-718-1170","ADSL","EFFFL","Efficacy Population Flag",null,null,null,"Y","","",81,null,null,null,null,null,null,null,null,null,null],[164,1,54,"Xanomeline Low Dose",null,"","","01-701-1294","ADSL","EFFFL","Efficacy Population Flag",null,null,null,"Y","","",81,null,null,null,null,null,null,null,null,null,null],[165,1,54,"Xanomeline Low Dose",null,"","","01-701-1188","ADSL","EFFFL","Efficacy Population Flag",null,null,null,"Y","","",81,null,null,null,null,null,null,null,null,null,null],[166,1,54,"Xanomeline Low Dose",null,"","","01-701-1115","ADSL","EFFFL","Efficacy Population Flag",null,null,null,"Y","","",81,null,null,null,null,null,null,null,null,null,null],[167,1,54,"Xanomeline Low Dose",null,"","","01-701-1097","ADSL","EFFFL","Efficacy Population Flag",null,null,null,"Y","","",81,null,null,null,null,null,null,null,null,null,null],[168,1,54,"Xanomeline Low Dose",null,"","","01-701-1111","ADSL","EFFFL","Efficacy Population Flag",null,null,null,"Y","","",81,null,null,null,null,null,null,null,null,null,null],[169,1,54,"Xanomeline Low Dose",null,"","","01-701-1211","ADSL","EFFFL","Efficacy Population Flag",null,null,null,"Y","","",81,null,null,null,null,null,null,null,null,null,null],[170,1,54,"Xanomeline Low Dose",null,"","","01-701-1033","ADSL","EFFFL","Efficacy Population Flag",null,null,null,"Y","","",81,null,null,null,null,null,null,null,null,null,null],[171,1,54,"Xanomeline Low Dose",null,"","","01-718-1250","ADSL","EFFFL","Efficacy Population Flag",null,null,null,"Y","","",81,null,null,null,null,null,null,null,null,null,null],[172,1,54,"Xanomeline Low Dose",null,"","","01-701-1429","ADSL","EFFFL","Efficacy Population Flag",null,null,null,"Y","","",81,null,null,null,null,null,null,null,null,null,null],[173,1,54,"Xanomeline Low Dose",null,"","","01-718-1079","ADSL","EFFFL","Efficacy Population Flag",null,null,null,"Y","","",81,null,null,null,null,null,null,null,null,null,null],[174,1,54,"Xanomeline Low Dose",null,"","","01-715-1085","ADSL","EFFFL","Efficacy Population Flag",null,null,null,"Y","","",81,null,null,null,null,null,null,null,null,null,null],[175,1,54,"Xanomeline Low Dose",null,"","","01-701-1324","ADSL","EFFFL","Efficacy Population Flag",null,null,null,"Y","","",81,null,null,null,null,null,null,null,null,null,null],[176,1,54,"Xanomeline Low Dose",null,"","","01-716-1103","ADSL","EFFFL","Efficacy Population Flag",null,null,null,"Y","","",81,null,null,null,null,null,null,null,null,null,null],[177,1,54,"Xanomeline Low Dose",null,"","","01-716-1157","ADSL","EFFFL","Efficacy Population Flag",null,null,null,"Y","","",81,null,null,null,null,null,null,null,null,null,null],[178,1,54,"Xanomeline Low Dose",null,"","","01-713-1448","ADSL","EFFFL","Efficacy Population Flag",null,null,null,"Y","","",81,null,null,null,null,null,null,null,null,null,null],[179,1,54,"Xanomeline Low Dose",null,"","","01-713-1043","ADSL","EFFFL","Efficacy Population Flag",null,null,null,"Y","","",81,null,null,null,null,null,null,null,null,null,null],[180,1,54,"Xanomeline Low Dose",null,"","","01-716-1151","ADSL","EFFFL","Efficacy Population Flag",null,null,null,"Y","","",81,null,null,null,null,null,null,null,null,null,null],[181,1,54,"Xanomeline Low Dose",null,"","","01-715-1405","ADSL","EFFFL","Efficacy Population Flag",null,null,null,"Y","","",81,null,null,null,null,null,null,null,null,null,null],[182,1,54,"Xanomeline Low Dose",null,"","","01-716-1063","ADSL","EFFFL","Efficacy Population Flag",null,null,null,"Y","","",81,null,null,null,null,null,null,null,null,null,null],[183,1,54,"Xanomeline Low Dose",null,"","","01-711-1143","ADSL","EFFFL","Efficacy Population Flag",null,null,null,"Y","","",81,null,null,null,null,null,null,null,null,null,null],[184,1,54,"Xanomeline Low Dose",null,"","","01-717-1446","ADSL","EFFFL","Efficacy Population Flag",null,null,null,"Y","","",81,null,null,null,null,null,null,null,null,null,null],[185,1,54,"Xanomeline Low Dose",null,"","","01-710-1358","ADSL","EFFFL","Efficacy Population Flag",null,null,null,"Y","","",81,null,null,null,null,null,null,null,null,null,null],[186,1,54,"Xanomeline Low Dose",null,"","","01-710-1045","ADSL","EFFFL","Efficacy Population Flag",null,null,null,"Y","","",81,null,null,null,null,null,null,null,null,null,null],[187,1,54,"Xanomeline Low Dose",null,"","","01-705-1031","ADSL","EFFFL","Efficacy Population Flag",null,null,null,"Y","","",81,null,null,null,null,null,null,null,null,null,null],[188,1,54,"Xanomeline Low Dose",null,"","","01-718-1170","ADSL","EFFFL","Efficacy Population Flag",null,null,null,"Y","","",81,null,null,null,null,null,null,null,null,null,null],[189,1,54,"Xanomeline Low Dose",null,"","","01-701-1192","ADSL","EFFFL","Efficacy Population Flag",null,null,null,"Y","","",81,null,null,null,null,null,null,null,null,null,null],[190,1,54,"Xanomeline Low Dose",null,"","","01-701-1188","ADSL","EFFFL","Efficacy Population Flag",null,null,null,"Y","","",81,null,null,null,null,null,null,null,null,null,null],[191,1,54,"Xanomeline Low Dose",null,"","","01-717-1446","ADSL","EFFFL","Efficacy Population Flag",null,null,null,"Y","","",81,null,null,null,null,null,null,null,null,null,null],[192,1,54,"Xanomeline Low Dose",null,"","","01-718-1250","ADSL","EFFFL","Efficacy Population Flag",null,null,null,"Y","","",81,null,null,null,null,null,null,null,null,null,null],[193,1,54,"Xanomeline Low Dose",null,"","","01-708-1428","ADSL","EFFFL","Efficacy Population Flag",null,null,null,"Y","","",81,null,null,null,null,null,null,null,null,null,null],[194,1,54,"Xanomeline Low Dose",null,"","","01-709-1081","ADSL","EFFFL","Efficacy Population Flag",null,null,null,"Y","","",81,null,null,null,null,null,null,null,null,null,null],[195,1,54,"Xanomeline Low Dose",null,"","","01-702-1082","ADSL","EFFFL","Efficacy Population Flag",null,null,null,"Y","","",81,null,null,null,null,null,null,null,null,null,null],[196,1,54,"Xanomeline Low Dose",null,"","","01-705-1393","ADSL","EFFFL","Efficacy Population Flag",null,null,null,"Y","","",81,null,null,null,null,null,null,null,null,null,null],[197,1,54,"Xanomeline Low Dose",null,"","","01-703-1086","ADSL","EFFFL","Efficacy Population Flag",null,null,null,"Y","","",81,null,null,null,null,null,null,null,null,null,null],[198,1,54,"Xanomeline Low Dose",null,"","","01-708-1084","ADSL","EFFFL","Efficacy Population Flag",null,null,null,"Y","","",81,null,null,null,null,null,null,null,null,null,null],[199,1,54,"Xanomeline Low Dose",null,"","","01-708-1032","ADSL","EFFFL","Efficacy Population Flag",null,null,null,"Y","","",81,null,null,null,null,null,null,null,null,null,null],[200,1,54,"Xanomeline Low Dose",null,"","","01-706-1384","ADSL","EFFFL","Efficacy Population Flag",null,null,null,"Y","","",81,null,null,null,null,null,null,null,null,null,null],[201,1,54,"Xanomeline Low Dose",null,"","","01-701-1317","ADSL","EFFFL","Efficacy Population Flag",null,null,null,"Y","","",81,null,null,null,null,null,null,null,null,null,null],[202,1,54,"Xanomeline Low Dose",null,"","","01-709-1102","ADSL","EFFFL","Efficacy Population Flag",null,null,null,"Y","","",81,null,null,null,null,null,null,null,null,null,null],[203,1,54,"Xanomeline Low Dose",null,"","","01-710-1002","ADSL","EFFFL","Efficacy Population Flag",null,null,null,"Y","","",81,null,null,null,null,null,null,null,null,null,null],[204,1,54,"Xanomeline Low Dose",null,"","","01-701-1442","ADSL","EFFFL","Efficacy Population Flag",null,null,null,"Y","","",81,null,null,null,null,null,null,null,null,null,null],[205,1,54,"Xanomeline Low Dose",null,"","","01-701-1324","ADSL","EFFFL","Efficacy Population Flag",null,null,null,"Y","","",81,null,null,null,null,null,null,null,null,null,null],[206,1,54,"Xanomeline Low Dose",null,"","","01-701-1341","ADSL","EFFFL","Efficacy Population Flag",null,null,null,"Y","","",81,null,null,null,null,null,null,null,null,null,null],[207,1,54,"Xanomeline Low Dose",null,"","","01-701-1294","ADSL","EFFFL","Efficacy Population Flag",null,null,null,"Y","","",81,null,null,null,null,null,null,null,null,null,null],[208,1,54,"Xanomeline Low Dose",null,"","","01-701-1429","ADSL","EFFFL","Efficacy Population Flag",null,null,null,"Y","","",81,null,null,null,null,null,null,null,null,null,null],[209,1,54,"Xanomeline Low Dose",null,"","","01-709-1285","ADSL","EFFFL","Efficacy Population Flag",null,null,null,"Y","","",81,null,null,null,null,null,null,null,null,null,null],[210,1,54,"Xanomeline Low Dose",null,"","","01-703-1182","ADSL","EFFFL","Efficacy Population Flag",null,null,null,"Y","","",81,null,null,null,null,null,null,null,null,null,null],[211,1,54,"Xanomeline Low Dose",null,"","","01-710-1053","ADSL","EFFFL","Efficacy Population Flag",null,null,null,"Y","","",81,null,null,null,null,null,null,null,null,null,null],[212,1,54,"Xanomeline Low Dose",null,"","","01-704-1325","ADSL","EFFFL","Efficacy Population Flag",null,null,null,"Y","","",81,null,null,null,null,null,null,null,null,null,null],[213,1,54,"Xanomeline Low Dose",null,"","","01-701-1111","ADSL","EFFFL","Efficacy Population Flag",null,null,null,"Y","","",81,null,null,null,null,null,null,null,null,null,null],[214,1,54,"Xanomeline Low Dose",null,"","","01-704-1025","ADSL","EFFFL","Efficacy Population Flag",null,null,null,"Y","","",81,null,null,null,null,null,null,null,null,null,null],[215,1,54,"Xanomeline Low Dose",null,"","","01-710-1154","ADSL","EFFFL","Efficacy Population Flag",null,null,null,"Y","","",81,null,null,null,null,null,null,null,null,null,null],[216,1,54,"Xanomeline Low Dose",null,"","","01-701-1097","ADSL","EFFFL","Efficacy Population Flag",null,null,null,"Y","","",81,null,null,null,null,null,null,null,null,null,null],[217,1,54,"Xanomeline Low Dose",null,"","","01-701-1115","ADSL","EFFFL","Efficacy Population Flag",null,null,null,"Y","","",81,null,null,null,null,null,null,null,null,null,null],[218,1,54,"Xanomeline Low Dose",null,"","","01-710-1270","ADSL","EFFFL","Efficacy Population Flag",null,null,null,"Y","","",81,null,null,null,null,null,null,null,null,null,null],[219,1,54,"Xanomeline Low Dose",null,"","","01-717-1004","ADSL","EFFFL","Efficacy Population Flag",null,null,null,"Y","","",81,null,null,null,null,null,null,null,null,null,null],[220,1,54,"Xanomeline Low Dose",null,"","","01-716-1094","ADSL","EFFFL","Efficacy Population Flag",null,null,null,"Y","","",81,null,null,null,null,null,null,null,null,null,null],[221,1,54,"Xanomeline Low Dose",null,"","","01-710-1300","ADSL","EFFFL","Efficacy Population Flag",null,null,null,"Y","","",81,null,null,null,null,null,null,null,null,null,null],[222,1,54,"Xanomeline Low Dose",null,"","","01-704-1114","ADSL","EFFFL","Efficacy Population Flag",null,null,null,"Y","","",81,null,null,null,null,null,null,null,null,null,null],[223,1,54,"Xanomeline Low Dose",null,"","","01-708-1019","ADSL","EFFFL","Efficacy Population Flag",null,null,null,"Y","","",81,null,null,null,null,null,null,null,null,null,null],[224,1,54,"Xanomeline Low Dose",null,"","","01-709-1020","ADSL","EFFFL","Efficacy Population Flag",null,null,null,"Y","","",81,null,null,null,null,null,null,null,null,null,null],[225,1,54,"Xanomeline Low Dose",null,"","","01-707-1037","ADSL","EFFFL","Efficacy Population Flag",null,null,null,"Y","","",81,null,null,null,null,null,null,null,null,null,null],[226,1,54,"Xanomeline Low Dose",null,"","","01-701-1317","ADSL","EFFFL","Efficacy Population Flag",null,null,null,"Y","","",81,null,null,null,null,null,null,null,null,null,null],[227,1,54,"Xanomeline Low Dose",null,"","","01-703-1119","ADSL","EFFFL","Efficacy Population Flag",null,null,null,"Y","","",81,null,null,null,null,null,null,null,null,null,null],[228,1,54,"Xanomeline Low Dose",null,"","","01-715-1107","ADSL","EFFFL","Efficacy Population Flag",null,null,null,"Y","","",81,null,null,null,null,null,null,null,null,null,null],[229,1,54,"Xanomeline Low Dose",null,"","","01-718-1066","ADSL","EFFFL","Efficacy Population Flag",null,null,null,"Y","","",81,null,null,null,null,null,null,null,null,null,null],[230,1,54,"Xanomeline Low Dose",null,"","","01-710-1385","ADSL","EFFFL","Efficacy Population Flag",null,null,null,"Y","","",81,null,null,null,null,null,null,null,null,null,null],[231,1,54,"Xanomeline Low Dose",null,"","","01-708-1348","ADSL","EFFFL","Efficacy Population Flag",null,null,null,"Y","","",81,null,null,null,null,null,null,null,null,null,null],[232,1,54,"Xanomeline Low Dose",null,"","","01-701-1442","ADSL","EFFFL","Efficacy Population Flag",null,null,null,"Y","","",81,null,null,null,null,null,null,null,null,null,null],[233,1,54,"Xanomeline Low Dose",null,"","","01-714-1068","ADSL","EFFFL","Efficacy Population Flag",null,null,null,"Y","","",81,null,null,null,null,null,null,null,null,null,null],[234,1,54,"Xanomeline Low Dose",null,"","","01-714-1195","ADSL","EFFFL","Efficacy Population Flag",null,null,null,"Y","","",81,null,null,null,null,null,null,null,null,null,null],[235,1,54,"Xanomeline Low Dose",null,"","","01-709-1326","ADSL","EFFFL","Efficacy Population Flag",null,null,null,"Y","","",81,null,null,null,null,null,null,null,null,null,null],[236,1,54,"Xanomeline Low Dose",null,"","","01-715-1085","ADSL","EFFFL","Efficacy Population Flag",null,null,null,"Y","","",81,null,null,null,null,null,null,null,null,null,null],[237,1,54,"Xanomeline Low Dose",null,"","","01-704-1135","ADSL","EFFFL","Efficacy Population Flag",null,null,null,"Y","","",81,null,null,null,null,null,null,null,null,null,null],[238,1,54,"Xanomeline Low Dose",null,"","","01-701-1192","ADSL","EFFFL","Efficacy Population Flag",null,null,null,"Y","","",81,null,null,null,null,null,null,null,null,null,null],[239,1,54,"Xanomeline Low Dose",null,"","","01-718-1066","ADSL","EFFFL","Efficacy Population Flag",null,null,null,"Y","","",81,null,null,null,null,null,null,null,null,null,null],[240,1,54,"Xanomeline Low Dose",null,"","","01-710-1166","ADSL","EFFFL","Efficacy Population Flag",null,null,null,"Y","","",81,null,null,null,null,null,null,null,null,null,null],[241,1,54,"Xanomeline Low Dose",null,"","","01-718-1079","ADSL","EFFFL","Efficacy Population Flag",null,null,null,"Y","","",81,null,null,null,null,null,null,null,null,null,null],[242,1,54,"Xanomeline Low Dose",null,"","","01-701-1211","ADSL","EFFFL","Efficacy Population Flag",null,null,null,"Y","","",81,null,null,null,null,null,null,null,null,null,null],[243,1,54,"Xanomeline Low Dose",null,"","","01-713-1073","ADSL","EFFFL","Efficacy Population Flag",null,null,null,"Y","","",81,null,null,null,null,null,null,null,null,null,null],[244,1,54,"Xanomeline Low Dose",null,"","","01-718-1254","ADSL","EFFFL","Efficacy Population Flag",null,null,null,"Y","","",81,null,null,null,null,null,null,null,null,null,null],[245,1,54,"Xanomeline Low Dose",null,"","","01-701-1033","ADSL","EFFFL","Efficacy Population Flag",null,null,null,"Y","","",81,null,null,null,null,null,null,null,null,null,null],[246,1,54,"Xanomeline Low Dose",null,"","","01-703-1379","ADSL","EFFFL","Efficacy Population Flag",null,null,null,"Y","","",81,null,null,null,null,null,null,null,null,null,null],[247,1,54,"Xanomeline Low Dose",null,"","","01-716-1063","ADSL","EFFFL","Efficacy Population Flag",null,null,null,"Y","","",81,null,null,null,null,null,null,null,null,null,null],[248,1,54,"Xanomeline Low Dose",null,"","","01-704-1120","ADSL","EFFFL","Efficacy Population Flag",null,null,null,"Y","","",81,null,null,null,null,null,null,null,null,null,null],[249,1,54,"Xanomeline Low Dose",null,"","","01-717-1004","ADSL","EFFFL","Efficacy Population Flag",null,null,null,"Y","","",81,null,null,null,null,null,null,null,null,null,null],[250,1,54,"Xanomeline Low Dose",null,"","","01-716-1311","ADSL","EFFFL","Efficacy Population Flag",null,null,null,"Y","","",81,null,null,null,null,null,null,null,null,null,null],[251,1,54,"Xanomeline Low Dose",null,"","","01-710-1154","ADSL","EFFFL","Efficacy Population Flag",null,null,null,"Y","","",81,null,null,null,null,null,null,null,null,null,null],[252,1,54,"Xanomeline Low Dose",null,"","","01-716-1311","ADSL","EFFFL","Efficacy Population Flag",null,null,null,"Y","","",81,null,null,null,null,null,null,null,null,null,null],[253,1,54,"Xanomeline Low Dose",null,"","","01-710-1358","ADSL","EFFFL","Efficacy Population Flag",null,null,null,"Y","","",81,null,null,null,null,null,null,null,null,null,null],[254,1,54,"Xanomeline Low Dose",null,"","","01-711-1143","ADSL","EFFFL","Efficacy Population Flag",null,null,null,"Y","","",81,null,null,null,null,null,null,null,null,null,null],[255,1,54,"Xanomeline Low Dose",null,"","","01-716-1298","ADSL","EFFFL","Efficacy Population Flag",null,null,null,"Y","","",81,null,null,null,null,null,null,null,null,null,null],[256,1,54,"Xanomeline Low Dose",null,"","","01-716-1094","ADSL","EFFFL","Efficacy Population Flag",null,null,null,"Y","","",81,null,null,null,null,null,null,null,null,null,null],[257,1,54,"Xanomeline Low Dose",null,"","","01-713-1073","ADSL","EFFFL","Efficacy Population Flag",null,null,null,"Y","","",81,null,null,null,null,null,null,null,null,null,null],[258,1,54,"Xanomeline Low Dose",null,"","","01-714-1068","ADSL","EFFFL","Efficacy Population Flag",null,null,null,"Y","","",81,null,null,null,null,null,null,null,null,null,null],[259,1,54,"Xanomeline Low Dose",null,"","","01-715-1107","ADSL","EFFFL","Efficacy Population Flag",null,null,null,"Y","","",81,null,null,null,null,null,null,null,null,null,null],[260,1,54,"Xanomeline Low Dose",null,"","","01-710-1235","ADSL","EFFFL","Efficacy Population Flag",null,null,null,"Y","","",81,null,null,null,null,null,null,null,null,null,null],[261,1,54,"Xanomeline Low Dose",null,"","","01-704-1218","ADSL","EFFFL","Efficacy Population Flag",null,null,null,"Y","","",81,null,null,null,null,null,null,null,null,null,null],[262,1,54,"Xanomeline Low Dose",null,"","","01-713-1448","ADSL","EFFFL","Efficacy Population Flag",null,null,null,"Y","","",81,null,null,null,null,null,null,null,null,null,null],[263,1,54,"Xanomeline Low Dose",null,"","","01-713-1043","ADSL","EFFFL","Efficacy Population Flag",null,null,null,"Y","","",81,null,null,null,null,null,null,null,null,null,null],[264,1,54,"Xanomeline Low Dose",null,"","","01-715-1405","ADSL","EFFFL","Efficacy Population Flag",null,null,null,"Y","","",81,null,null,null,null,null,null,null,null,null,null],[265,1,54,"Xanomeline Low Dose",null,"","","01-716-1103","ADSL","EFFFL","Efficacy Population Flag",null,null,null,"Y","","",81,null,null,null,null,null,null,null,null,null,null],[266,1,54,"Xanomeline Low Dose",null,"","","01-710-1385","ADSL","EFFFL","Efficacy Population Flag",null,null,null,"Y","","",81,null,null,null,null,null,null,null,null,null,null],[267,1,54,"Xanomeline Low Dose",null,"","","01-710-1300","ADSL","EFFFL","Efficacy Population Flag",null,null,null,"Y","","",81,null,null,null,null,null,null,null,null,null,null],[268,1,54,"Xanomeline Low Dose",null,"","","01-708-1272","ADSL","EFFFL","Efficacy Population Flag",null,null,null,"Y","","",81,null,null,null,null,null,null,null,null,null,null],[269,1,54,"Xanomeline Low Dose",null,"","","01-708-1297","ADSL","EFFFL","Efficacy Population Flag",null,null,null,"Y","","",81,null,null,null,null,null,null,null,null,null,null],[270,1,54,"Xanomeline Low Dose",null,"","","01-710-1166","ADSL","EFFFL","Efficacy Population Flag",null,null,null,"Y","","",81,null,null,null,null,null,null,null,null,null,null],[271,1,54,"Xanomeline Low Dose",null,"","","01-710-1270","ADSL","EFFFL","Efficacy Population Flag",null,null,null,"Y","","",81,null,null,null,null,null,null,null,null,null,null],[272,1,54,"Xanomeline Low Dose",null,"","","01-710-1053","ADSL","EFFFL","Efficacy Population Flag",null,null,null,"Y","","",81,null,null,null,null,null,null,null,null,null,null],[273,1,54,"Xanomeline Low Dose",null,"","","01-710-1045","ADSL","EFFFL","Efficacy Population Flag",null,null,null,"Y","","",81,null,null,null,null,null,null,null,null,null,null],[274,1,54,"Xanomeline Low Dose",null,"","","01-709-1020","ADSL","EFFFL","Efficacy Population Flag",null,null,null,"Y","","",81,null,null,null,null,null,null,null,null,null,null],[275,1,54,"Xanomeline Low Dose",null,"","","01-709-1326","ADSL","EFFFL","Efficacy Population Flag",null,null,null,"Y","","",81,null,null,null,null,null,null,null,null,null,null],[276,1,54,"Xanomeline Low Dose",null,"","","01-709-1102","ADSL","EFFFL","Efficacy Population Flag",null,null,null,"Y","","",81,null,null,null,null,null,null,null,null,null,null],[277,1,54,"Xanomeline Low Dose",null,"","","01-709-1217","ADSL","EFFFL","Efficacy Population Flag",null,null,null,"Y","","",81,null,null,null,null,null,null,null,null,null,null],[278,1,54,"Xanomeline Low Dose",null,"","","01-709-1285","ADSL","EFFFL","Efficacy Population Flag",null,null,null,"Y","","",81,null,null,null,null,null,null,null,null,null,null],[279,1,54,"Xanomeline Low Dose",null,"","","01-709-1217","ADSL","EFFFL","Efficacy Population Flag",null,null,null,"Y","","",81,null,null,null,null,null,null,null,null,null,null],[280,1,54,"Xanomeline Low Dose",null,"","","01-709-1081","ADSL","EFFFL","Efficacy Population Flag",null,null,null,"Y","","",81,null,null,null,null,null,null,null,null,null,null],[281,1,54,"Xanomeline Low Dose",null,"","","01-702-1082","ADSL","EFFFL","Efficacy Population Flag",null,null,null,"Y","","",81,null,null,null,null,null,null,null,null,null,null],[282,1,54,"Xanomeline Low Dose",null,"","","01-705-1199","ADSL","EFFFL","Efficacy Population Flag",null,null,null,"Y","","",81,null,null,null,null,null,null,null,null,null,null],[283,1,54,"Xanomeline Low Dose",null,"","","01-708-1428","ADSL","EFFFL","Efficacy Population Flag",null,null,null,"Y","","",81,null,null,null,null,null,null,null,null,null,null],[284,1,54,"Xanomeline Low Dose",null,"","","01-708-1297","ADSL","EFFFL","Efficacy Population Flag",null,null,null,"Y","","",81,null,null,null,null,null,null,null,null,null,null],[285,1,54,"Xanomeline Low Dose",null,"","","01-708-1353","ADSL","EFFFL","Efficacy Population Flag",null,null,null,"Y","","",81,null,null,null,null,null,null,null,null,null,null],[286,1,54,"Xanomeline Low Dose",null,"","","01-705-1292","ADSL","EFFFL","Efficacy Population Flag",null,null,null,"Y","","",81,null,null,null,null,null,null,null,null,null,null],[287,1,54,"Xanomeline Low Dose",null,"","","01-708-1348","ADSL","EFFFL","Efficacy Population Flag",null,null,null,"Y","","",81,null,null,null,null,null,null,null,null,null,null],[288,1,54,"Xanomeline Low Dose",null,"","","01-716-1298","ADSL","EFFFL","Efficacy Population Flag",null,null,null,"Y","","",81,null,null,null,null,null,null,null,null,null,null],[289,1,54,"Xanomeline Low Dose",null,"","","01-716-1167","ADSL","EFFFL","Efficacy Population Flag",null,null,null,"Y","","",81,null,null,null,null,null,null,null,null,null,null],[290,1,54,"Xanomeline Low Dose",null,"","","01-705-1431","ADSL","EFFFL","Efficacy Population Flag",null,null,null,"Y","","",81,null,null,null,null,null,null,null,null,null,null],[291,1,54,"Xanomeline Low Dose",null,"","","01-704-1009","ADSL","EFFFL","Efficacy Population Flag",null,null,null,"Y","","",81,null,null,null,null,null,null,null,null,null,null],[292,1,54,"Xanomeline Low Dose",null,"","","01-708-1084","ADSL","EFFFL","Efficacy Population Flag",null,null,null,"Y","","",81,null,null,null,null,null,null,null,null,null,null],[293,1,54,"Xanomeline Low Dose",null,"","","01-708-1032","ADSL","EFFFL","Efficacy Population Flag",null,null,null,"Y","","",81,null,null,null,null,null,null,null,null,null,null],[294,1,54,"Xanomeline Low Dose",null,"","","01-708-1019","ADSL","EFFFL","Efficacy Population Flag",null,null,null,"Y","","",81,null,null,null,null,null,null,null,null,null,null],[295,1,54,"Xanomeline Low Dose",null,"","","01-703-1379","ADSL","EFFFL","Efficacy Population Flag",null,null,null,"Y","","",81,null,null,null,null,null,null,null,null,null,null],[296,1,54,"Xanomeline Low Dose",null,"","","01-708-1272","ADSL","EFFFL","Efficacy Population Flag",null,null,null,"Y","","",81,null,null,null,null,null,null,null,null,null,null],[297,1,54,"Xanomeline Low Dose",null,"","","01-707-1037","ADSL","EFFFL","Efficacy Population Flag",null,null,null,"Y","","",81,null,null,null,null,null,null,null,null,null,null],[298,1,54,"Xanomeline Low Dose",null,"","","01-714-1195","ADSL","EFFFL","Efficacy Population Flag",null,null,null,"Y","","",81,null,null,null,null,null,null,null,null,null,null],[299,1,54,"Xanomeline Low Dose",null,"","","01-710-1002","ADSL","EFFFL","Efficacy Population Flag",null,null,null,"Y","","",81,null,null,null,null,null,null,null,null,null,null],[300,1,54,"Xanomeline Low Dose",null,"","","01-705-1393","ADSL","EFFFL","Efficacy Population Flag",null,null,null,"Y","","",81,null,null,null,null,null,null,null,null,null,null],[301,1,54,"Xanomeline Low Dose",null,"","","01-705-1292","ADSL","EFFFL","Efficacy Population Flag",null,null,null,"Y","","",81,null,null,null,null,null,null,null,null,null,null],[302,1,54,"Xanomeline Low Dose",null,"","","01-716-1151","ADSL","EFFFL","Efficacy Population Flag",null,null,null,"Y","","",81,null,null,null,null,null,null,null,null,null,null],[303,1,54,"Xanomeline Low Dose",null,"","","01-716-1167","ADSL","EFFFL","Efficacy Population Flag",null,null,null,"Y","","",81,null,null,null,null,null,null,null,null,null,null],[304,1,54,"Xanomeline Low Dose",null,"","","01-704-1135","ADSL","EFFFL","Efficacy Population Flag",null,null,null,"Y","","",81,null,null,null,null,null,null,null,null,null,null],[305,1,54,"Xanomeline Low Dose",null,"","","01-704-1009","ADSL","EFFFL","Efficacy Population Flag",null,null,null,"Y","","",81,null,null,null,null,null,null,null,null,null,null],[306,1,54,"Xanomeline Low Dose",null,"","","01-704-1218","ADSL","EFFFL","Efficacy Population Flag",null,null,null,"Y","","",81,null,null,null,null,null,null,null,null,null,null],[307,1,54,"Xanomeline Low Dose",null,"","","01-705-1199","ADSL","EFFFL","Efficacy Population Flag",null,null,null,"Y","","",81,null,null,null,null,null,null,null,null,null,null],[308,1,54,"Xanomeline Low Dose",null,"","","01-704-1114","ADSL","EFFFL","Efficacy Population Flag",null,null,null,"Y","","",81,null,null,null,null,null,null,null,null,null,null],[309,1,54,"Xanomeline Low Dose",null,"","","01-704-1120","ADSL","EFFFL","Efficacy Population Flag",null,null,null,"Y","","",81,null,null,null,null,null,null,null,null,null,null],[310,1,54,"Xanomeline Low Dose",null,"","","01-705-1431","ADSL","EFFFL","Efficacy Population Flag",null,null,null,"Y","","",81,null,null,null,null,null,null,null,null,null,null],[311,1,54,"Xanomeline Low Dose",null,"","","01-705-1031","ADSL","EFFFL","Efficacy Population Flag",null,null,null,"Y","","",81,null,null,null,null,null,null,null,null,null,null],[312,1,54,"Xanomeline Low Dose",null,"","","01-704-1025","ADSL","EFFFL","Efficacy Population Flag",null,null,null,"Y","","",81,null,null,null,null,null,null,null,null,null,null],[313,1,54,"Xanomeline Low Dose",null,"","","01-708-1353","ADSL","EFFFL","Efficacy Population Flag",null,null,null,"Y","","",81,null,null,null,null,null,null,null,null,null,null],[314,1,54,"Xanomeline Low Dose",null,"","","01-710-1235","ADSL","EFFFL","Efficacy Population Flag",null,null,null,"Y","","",81,null,null,null,null,null,null,null,null,null,null],[315,1,54,"Xanomeline Low Dose",null,"","","01-703-1197","ADSL","EFFFL","Efficacy Population Flag",null,null,null,"Y","","",81,null,null,null,null,null,null,null,null,null,null],[316,1,54,"Xanomeline Low Dose",null,"","","01-704-1325","ADSL","EFFFL","Efficacy Population Flag",null,null,null,"Y","","",81,null,null,null,null,null,null,null,null,null,null],[317,1,54,"Xanomeline Low Dose",null,"","","01-716-1157","ADSL","EFFFL","Efficacy Population Flag",null,null,null,"Y","","",81,null,null,null,null,null,null,null,null,null,null],[318,1,54,"Xanomeline Low Dose",null,"","","01-703-1197","ADSL","EFFFL","Efficacy Population Flag",null,null,null,"Y","","",81,null,null,null,null,null,null,null,null,null,null],[319,1,54,"Xanomeline Low Dose",null,"","","01-706-1384","ADSL","EFFFL","Efficacy Population Flag",null,null,null,"Y","","",81,null,null,null,null,null,null,null,null,null,null],[320,1,54,"Xanomeline Low Dose",null,"","","01-703-1182","ADSL","EFFFL","Efficacy Population Flag",null,null,null,"Y","","",81,null,null,null,null,null,null,null,null,null,null],[321,1,81,"Xanomeline High Dose",null,"","","01-718-1427","ADSL","EFFFL","Efficacy Population Flag",null,null,null,"Y","","",74,null,null,null,null,null,null,null,null,null,null],[322,1,81,"Xanomeline High Dose",null,"","","01-718-1101","ADSL","EFFFL","Efficacy Population Flag",null,null,null,"Y","","",74,null,null,null,null,null,null,null,null,null,null],[323,1,81,"Xanomeline High Dose",null,"","","01-715-1321","ADSL","EFFFL","Efficacy Population Flag",null,null,null,"Y","","",74,null,null,null,null,null,null,null,null,null,null],[324,1,81,"Xanomeline High Dose",null,"","","01-717-1357","ADSL","EFFFL","Efficacy Population Flag",null,null,null,"Y","","",74,null,null,null,null,null,null,null,null,null,null],[325,1,81,"Xanomeline High Dose",null,"","","01-716-1418","ADSL","EFFFL","Efficacy Population Flag",null,null,null,"Y","","",74,null,null,null,null,null,null,null,null,null,null],[326,1,81,"Xanomeline High Dose",null,"","","01-716-1373","ADSL","EFFFL","Efficacy Population Flag",null,null,null,"Y","","",74,null,null,null,null,null,null,null,null,null,null],[327,1,81,"Xanomeline High Dose",null,"","","01-716-1229","ADSL","EFFFL","Efficacy Population Flag",null,null,null,"Y","","",74,null,null,null,null,null,null,null,null,null,null],[328,1,81,"Xanomeline High Dose",null,"","","01-716-1189","ADSL","EFFFL","Efficacy Population Flag",null,null,null,"Y","","",74,null,null,null,null,null,null,null,null,null,null],[329,1,81,"Xanomeline High Dose",null,"","","01-710-1354","ADSL","EFFFL","Efficacy Population Flag",null,null,null,"Y","","",74,null,null,null,null,null,null,null,null,null,null],[330,1,81,"Xanomeline High Dose",null,"","","01-710-1187","ADSL","EFFFL","Efficacy Population Flag",null,null,null,"Y","","",74,null,null,null,null,null,null,null,null,null,null],[331,1,81,"Xanomeline High Dose",null,"","","01-715-1319","ADSL","EFFFL","Efficacy Population Flag",null,null,null,"Y","","",74,null,null,null,null,null,null,null,null,null,null],[332,1,81,"Xanomeline High Dose",null,"","","01-711-1012","ADSL","EFFFL","Efficacy Population Flag",null,null,null,"Y","","",74,null,null,null,null,null,null,null,null,null,null],[333,1,81,"Xanomeline High Dose",null,"","","01-713-1106","ADSL","EFFFL","Efficacy Population Flag",null,null,null,"Y","","",74,null,null,null,null,null,null,null,null,null,null],[334,1,81,"Xanomeline High Dose",null,"","","01-710-1278","ADSL","EFFFL","Efficacy Population Flag",null,null,null,"Y","","",74,null,null,null,null,null,null,null,null,null,null],[335,1,81,"Xanomeline High Dose",null,"","","01-710-1408","ADSL","EFFFL","Efficacy Population Flag",null,null,null,"Y","","",74,null,null,null,null,null,null,null,null,null,null],[336,1,81,"Xanomeline High Dose",null,"","","01-709-1238","ADSL","EFFFL","Efficacy Population Flag",null,null,null,"Y","","",74,null,null,null,null,null,null,null,null,null,null],[337,1,81,"Xanomeline High Dose",null,"","","01-709-1329","ADSL","EFFFL","Efficacy Population Flag",null,null,null,"Y","","",74,null,null,null,null,null,null,null,null,null,null],[338,1,81,"Xanomeline High Dose",null,"","","01-714-1288","ADSL","EFFFL","Efficacy Population Flag",null,null,null,"Y","","",74,null,null,null,null,null,null,null,null,null,null],[339,1,81,"Xanomeline High Dose",null,"","","01-716-1030","ADSL","EFFFL","Efficacy Population Flag",null,null,null,"Y","","",74,null,null,null,null,null,null,null,null,null,null],[340,1,81,"Xanomeline High Dose",null,"","","01-710-1142","ADSL","EFFFL","Efficacy Population Flag",null,null,null,"Y","","",74,null,null,null,null,null,null,null,null,null,null],[341,1,81,"Xanomeline High Dose",null,"","","01-709-1424","ADSL","EFFFL","Efficacy Population Flag",null,null,null,"Y","","",74,null,null,null,null,null,null,null,null,null,null],[342,1,81,"Xanomeline High Dose",null,"","","01-717-1174","ADSL","EFFFL","Efficacy Population Flag",null,null,null,"Y","","",74,null,null,null,null,null,null,null,null,null,null],[343,1,81,"Xanomeline High Dose",null,"","","01-709-1309","ADSL","EFFFL","Efficacy Population Flag",null,null,null,"Y","","",74,null,null,null,null,null,null,null,null,null,null],[344,1,81,"Xanomeline High Dose",null,"","","01-716-1364","ADSL","EFFFL","Efficacy Population Flag",null,null,null,"Y","","",74,null,null,null,null,null,null,null,null,null,null],[345,1,81,"Xanomeline High Dose",null,"","","01-717-1109","ADSL","EFFFL","Efficacy Population Flag",null,null,null,"Y","","",74,null,null,null,null,null,null,null,null,null,null],[346,1,81,"Xanomeline High Dose",null,"","","01-709-1168","ADSL","EFFFL","Efficacy Population Flag",null,null,null,"Y","","",74,null,null,null,null,null,null,null,null,null,null],[347,1,81,"Xanomeline High Dose",null,"","","01-709-1029","ADSL","EFFFL","Efficacy Population Flag",null,null,null,"Y","","",74,null,null,null,null,null,null,null,null,null,null],[348,1,81,"Xanomeline High Dose",null,"","","01-701-1181","ADSL","EFFFL","Efficacy Population Flag",null,null,null,"Y","","",74,null,null,null,null,null,null,null,null,null,null],[349,1,81,"Xanomeline High Dose",null,"","","01-701-1275","ADSL","EFFFL","Efficacy Population Flag",null,null,null,"Y","","",74,null,null,null,null,null,null,null,null,null,null],[350,1,81,"Xanomeline High Dose",null,"","","01-718-1371","ADSL","EFFFL","Efficacy Population Flag",null,null,null,"Y","","",74,null,null,null,null,null,null,null,null,null,null],[351,1,81,"Xanomeline High Dose",null,"","","01-701-1028","ADSL","EFFFL","Efficacy Population Flag",null,null,null,"Y","","",74,null,null,null,null,null,null,null,null,null,null],[352,1,81,"Xanomeline High Dose",null,"","","01-704-1017","ADSL","EFFFL","Efficacy Population Flag",null,null,null,"Y","","",74,null,null,null,null,null,null,null,null,null,null],[353,1,81,"Xanomeline High Dose",null,"","","01-705-1280","ADSL","EFFFL","Efficacy Population Flag",null,null,null,"Y","","",74,null,null,null,null,null,null,null,null,null,null],[354,1,81,"Xanomeline High Dose",null,"","","01-704-1241","ADSL","EFFFL","Efficacy Population Flag",null,null,null,"Y","","",74,null,null,null,null,null,null,null,null,null,null],[355,1,81,"Xanomeline High Dose",null,"","","01-704-1266","ADSL","EFFFL","Efficacy Population Flag",null,null,null,"Y","","",74,null,null,null,null,null,null,null,null,null,null],[356,1,81,"Xanomeline High Dose",null,"","","01-701-1148","ADSL","EFFFL","Efficacy Population Flag",null,null,null,"Y","","",74,null,null,null,null,null,null,null,null,null,null],[357,1,81,"Xanomeline High Dose",null,"","","01-704-1065","ADSL","EFFFL","Efficacy Population Flag",null,null,null,"Y","","",74,null,null,null,null,null,null,null,null,null,null],[358,1,81,"Xanomeline High Dose",null,"","","01-701-1302","ADSL","EFFFL","Efficacy Population Flag",null,null,null,"Y","","",74,null,null,null,null,null,null,null,null,null,null],[359,1,81,"Xanomeline High Dose",null,"","","01-703-1335","ADSL","EFFFL","Efficacy Population Flag",null,null,null,"Y","","",74,null,null,null,null,null,null,null,null,null,null],[360,1,81,"Xanomeline High Dose",null,"","","01-703-1258","ADSL","EFFFL","Efficacy Population Flag",null,null,null,"Y","","",74,null,null,null,null,null,null,null,null,null,null],[361,1,81,"Xanomeline High Dose",null,"","","01-701-1383","ADSL","EFFFL","Efficacy Population Flag",null,null,null,"Y","","",74,null,null,null,null,null,null,null,null,null,null],[362,1,81,"Xanomeline High Dose",null,"","","01-701-1444","ADSL","EFFFL","Efficacy Population Flag",null,null,null,"Y","","",74,null,null,null,null,null,null,null,null,null,null],[363,1,81,"Xanomeline High Dose",null,"","","01-703-1076","ADSL","EFFFL","Efficacy Population Flag",null,null,null,"Y","","",74,null,null,null,null,null,null,null,null,null,null],[364,1,81,"Xanomeline High Dose",null,"","","01-701-1360","ADSL","EFFFL","Efficacy Population Flag",null,null,null,"Y","","",74,null,null,null,null,null,null,null,null,null,null],[365,1,81,"Xanomeline High Dose",null,"","","01-701-1133","ADSL","EFFFL","Efficacy Population Flag",null,null,null,"Y","","",74,null,null,null,null,null,null,null,null,null,null],[366,1,81,"Xanomeline High Dose",null,"","","01-701-1275","ADSL","EFFFL","Efficacy Population Flag",null,null,null,"Y","","",74,null,null,null,null,null,null,null,null,null,null],[367,1,81,"Xanomeline High Dose",null,"","","01-704-1093","ADSL","EFFFL","Efficacy Population Flag",null,null,null,"Y","","",74,null,null,null,null,null,null,null,null,null,null],[368,1,81,"Xanomeline High Dose",null,"","","01-703-1335","ADSL","EFFFL","Efficacy Population Flag",null,null,null,"Y","","",74,null,null,null,null,null,null,null,null,null,null],[369,1,81,"Xanomeline High Dose",null,"","","01-701-1180","ADSL","EFFFL","Efficacy Population Flag",null,null,null,"Y","","",74,null,null,null,null,null,null,null,null,null,null],[370,1,81,"Xanomeline High Dose",null,"","","01-704-1074","ADSL","EFFFL","Efficacy Population Flag",null,null,null,"Y","","",74,null,null,null,null,null,null,null,null,null,null],[371,1,81,"Xanomeline High Dose",null,"","","01-703-1295","ADSL","EFFFL","Efficacy Population Flag",null,null,null,"Y","","",74,null,null,null,null,null,null,null,null,null,null],[372,1,81,"Xanomeline High Dose",null,"","","01-704-1065","ADSL","EFFFL","Efficacy Population Flag",null,null,null,"Y","","",74,null,null,null,null,null,null,null,null,null,null],[373,1,81,"Xanomeline High Dose",null,"","","01-704-1332","ADSL","EFFFL","Efficacy Population Flag",null,null,null,"Y","","",74,null,null,null,null,null,null,null,null,null,null],[374,1,81,"Xanomeline High Dose",null,"","","01-711-1012","ADSL","EFFFL","Efficacy Population Flag",null,null,null,"Y","","",74,null,null,null,null,null,null,null,null,null,null],[375,1,81,"Xanomeline High Dose",null,"","","01-701-1034","ADSL","EFFFL","Efficacy Population Flag",null,null,null,"Y","","",74,null,null,null,null,null,null,null,null,null,null],[376,1,81,"Xanomeline High Dose",null,"","","01-717-1174","ADSL","EFFFL","Efficacy Population Flag",null,null,null,"Y","","",74,null,null,null,null,null,null,null,null,null,null],[377,1,81,"Xanomeline High Dose",null,"","","01-717-1109","ADSL","EFFFL","Efficacy Population Flag",null,null,null,"Y","","",74,null,null,null,null,null,null,null,null,null,null],[378,1,81,"Xanomeline High Dose",null,"","","01-716-1189","ADSL","EFFFL","Efficacy Population Flag",null,null,null,"Y","","",74,null,null,null,null,null,null,null,null,null,null],[379,1,81,"Xanomeline High Dose",null,"","","01-718-1371","ADSL","EFFFL","Efficacy Population Flag",null,null,null,"Y","","",74,null,null,null,null,null,null,null,null,null,null],[380,1,81,"Xanomeline High Dose",null,"","","01-716-1373","ADSL","EFFFL","Efficacy Population Flag",null,null,null,"Y","","",74,null,null,null,null,null,null,null,null,null,null],[381,1,81,"Xanomeline High Dose",null,"","","01-713-1209","ADSL","EFFFL","Efficacy Population Flag",null,null,null,"Y","","",74,null,null,null,null,null,null,null,null,null,null],[382,1,81,"Xanomeline High Dose",null,"","","01-716-1364","ADSL","EFFFL","Efficacy Population Flag",null,null,null,"Y","","",74,null,null,null,null,null,null,null,null,null,null],[383,1,81,"Xanomeline High Dose",null,"","","01-718-1328","ADSL","EFFFL","Efficacy Population Flag",null,null,null,"Y","","",74,null,null,null,null,null,null,null,null,null,null],[384,1,81,"Xanomeline High Dose",null,"","","01-716-1447","ADSL","EFFFL","Efficacy Population Flag",null,null,null,"Y","","",74,null,null,null,null,null,null,null,null,null,null],[385,1,81,"Xanomeline High Dose",null,"","","01-717-1357","ADSL","EFFFL","Efficacy Population Flag",null,null,null,"Y","","",74,null,null,null,null,null,null,null,null,null,null],[386,1,81,"Xanomeline High Dose",null,"","","01-701-1146","ADSL","EFFFL","Efficacy Population Flag",null,null,null,"Y","","",74,null,null,null,null,null,null,null,null,null,null],[387,1,81,"Xanomeline High Dose",null,"","","01-716-1229","ADSL","EFFFL","Efficacy Population Flag",null,null,null,"Y","","",74,null,null,null,null,null,null,null,null,null,null],[388,1,81,"Xanomeline High Dose",null,"","","01-715-1321","ADSL","EFFFL","Efficacy Population Flag",null,null,null,"Y","","",74,null,null,null,null,null,null,null,null,null,null],[389,1,81,"Xanomeline High Dose",null,"","","01-704-1008","ADSL","EFFFL","Efficacy Population Flag",null,null,null,"Y","","",74,null,null,null,null,null,null,null,null,null,null],[390,1,81,"Xanomeline High Dose",null,"","","01-716-1071","ADSL","EFFFL","Efficacy Population Flag",null,null,null,"Y","","",74,null,null,null,null,null,null,null,null,null,null],[391,1,81,"Xanomeline High Dose",null,"","","01-701-1148","ADSL","EFFFL","Efficacy Population Flag",null,null,null,"Y","","",74,null,null,null,null,null,null,null,null,null,null],[392,1,81,"Xanomeline High Dose",null,"","","01-716-1030","ADSL","EFFFL","Efficacy Population Flag",null,null,null,"Y","","",74,null,null,null,null,null,null,null,null,null,null],[393,1,81,"Xanomeline High Dose",null,"","","01-705-1280","ADSL","EFFFL","Efficacy Population Flag",null,null,null,"Y","","",74,null,null,null,null,null,null,null,null,null,null],[394,1,81,"Xanomeline High Dose",null,"","","01-701-1444","ADSL","EFFFL","Efficacy Population Flag",null,null,null,"Y","","",74,null,null,null,null,null,null,null,null,null,null],[395,1,81,"Xanomeline High Dose",null,"","","01-701-1302","ADSL","EFFFL","Efficacy Population Flag",null,null,null,"Y","","",74,null,null,null,null,null,null,null,null,null,null],[396,1,81,"Xanomeline High Dose",null,"","","01-715-1319","ADSL","EFFFL","Efficacy Population Flag",null,null,null,"Y","","",74,null,null,null,null,null,null,null,null,null,null],[397,1,81,"Xanomeline High Dose",null,"","","01-714-1425","ADSL","EFFFL","Efficacy Population Flag",null,null,null,"Y","","",74,null,null,null,null,null,null,null,null,null,null],[398,1,81,"Xanomeline High Dose",null,"","","01-701-1028","ADSL","EFFFL","Efficacy Population Flag",null,null,null,"Y","","",74,null,null,null,null,null,null,null,null,null,null],[399,1,81,"Xanomeline High Dose",null,"","","01-716-1418","ADSL","EFFFL","Efficacy Population Flag",null,null,null,"Y","","",74,null,null,null,null,null,null,null,null,null,null],[400,1,81,"Xanomeline High Dose",null,"","","01-714-1288","ADSL","EFFFL","Efficacy Population Flag",null,null,null,"Y","","",74,null,null,null,null,null,null,null,null,null,null],[401,1,81,"Xanomeline High Dose",null,"","","01-705-1281","ADSL","EFFFL","Efficacy Population Flag",null,null,null,"Y","","",74,null,null,null,null,null,null,null,null,null,null],[402,1,81,"Xanomeline High Dose",null,"","","01-701-1383","ADSL","EFFFL","Efficacy Population Flag",null,null,null,"Y","","",74,null,null,null,null,null,null,null,null,null,null],[403,1,81,"Xanomeline High Dose",null,"","","01-703-1076","ADSL","EFFFL","Efficacy Population Flag",null,null,null,"Y","","",74,null,null,null,null,null,null,null,null,null,null],[404,1,81,"Xanomeline High Dose",null,"","","01-713-1106","ADSL","EFFFL","Efficacy Population Flag",null,null,null,"Y","","",74,null,null,null,null,null,null,null,null,null,null],[405,1,81,"Xanomeline High Dose",null,"","","01-718-1101","ADSL","EFFFL","Efficacy Population Flag",null,null,null,"Y","","",74,null,null,null,null,null,null,null,null,null,null],[406,1,81,"Xanomeline High Dose",null,"","","01-710-1408","ADSL","EFFFL","Efficacy Population Flag",null,null,null,"Y","","",74,null,null,null,null,null,null,null,null,null,null],[407,1,81,"Xanomeline High Dose",null,"","","01-710-1354","ADSL","EFFFL","Efficacy Population Flag",null,null,null,"Y","","",74,null,null,null,null,null,null,null,null,null,null],[408,1,81,"Xanomeline High Dose",null,"","","01-705-1281","ADSL","EFFFL","Efficacy Population Flag",null,null,null,"Y","","",74,null,null,null,null,null,null,null,null,null,null],[409,1,81,"Xanomeline High Dose",null,"","","01-710-1249","ADSL","EFFFL","Efficacy Population Flag",null,null,null,"Y","","",74,null,null,null,null,null,null,null,null,null,null],[410,1,81,"Xanomeline High Dose",null,"","","01-710-1142","ADSL","EFFFL","Efficacy Population Flag",null,null,null,"Y","","",74,null,null,null,null,null,null,null,null,null,null],[411,1,81,"Xanomeline High Dose",null,"","","01-710-1278","ADSL","EFFFL","Efficacy Population Flag",null,null,null,"Y","","",74,null,null,null,null,null,null,null,null,null,null],[412,1,81,"Xanomeline High Dose",null,"","","01-710-1187","ADSL","EFFFL","Efficacy Population Flag",null,null,null,"Y","","",74,null,null,null,null,null,null,null,null,null,null],[413,1,81,"Xanomeline High Dose",null,"","","01-701-1181","ADSL","EFFFL","Efficacy Population Flag",null,null,null,"Y","","",74,null,null,null,null,null,null,null,null,null,null],[414,1,81,"Xanomeline High Dose",null,"","","01-710-1070","ADSL","EFFFL","Efficacy Population Flag",null,null,null,"Y","","",74,null,null,null,null,null,null,null,null,null,null],[415,1,81,"Xanomeline High Dose",null,"","","01-704-1093","ADSL","EFFFL","Efficacy Population Flag",null,null,null,"Y","","",74,null,null,null,null,null,null,null,null,null,null],[416,1,81,"Xanomeline High Dose",null,"","","01-708-1336","ADSL","EFFFL","Efficacy Population Flag",null,null,null,"Y","","",74,null,null,null,null,null,null,null,null,null,null],[417,1,81,"Xanomeline High Dose",null,"","","01-708-1406","ADSL","EFFFL","Efficacy Population Flag",null,null,null,"Y","","",74,null,null,null,null,null,null,null,null,null,null],[418,1,81,"Xanomeline High Dose",null,"","","01-704-1332","ADSL","EFFFL","Efficacy Population Flag",null,null,null,"Y","","",74,null,null,null,null,null,null,null,null,null,null],[419,1,81,"Xanomeline High Dose",null,"","","01-709-1309","ADSL","EFFFL","Efficacy Population Flag",null,null,null,"Y","","",74,null,null,null,null,null,null,null,null,null,null],[420,1,81,"Xanomeline High Dose",null,"","","01-709-1329","ADSL","EFFFL","Efficacy Population Flag",null,null,null,"Y","","",74,null,null,null,null,null,null,null,null,null,null],[421,1,81,"Xanomeline High Dose",null,"","","01-701-1287","ADSL","EFFFL","Efficacy Population Flag",null,null,null,"Y","","",74,null,null,null,null,null,null,null,null,null,null],[422,1,81,"Xanomeline High Dose",null,"","","01-709-1238","ADSL","EFFFL","Efficacy Population Flag",null,null,null,"Y","","",74,null,null,null,null,null,null,null,null,null,null],[423,1,81,"Xanomeline High Dose",null,"","","01-709-1424","ADSL","EFFFL","Efficacy Population Flag",null,null,null,"Y","","",74,null,null,null,null,null,null,null,null,null,null],[424,1,81,"Xanomeline High Dose",null,"","","01-709-1168","ADSL","EFFFL","Efficacy Population Flag",null,null,null,"Y","","",74,null,null,null,null,null,null,null,null,null,null],[425,1,81,"Xanomeline High Dose",null,"","","01-701-1239","ADSL","EFFFL","Efficacy Population Flag",null,null,null,"Y","","",74,null,null,null,null,null,null,null,null,null,null],[426,1,81,"Xanomeline High Dose",null,"","","01-708-1178","ADSL","EFFFL","Efficacy Population Flag",null,null,null,"Y","","",74,null,null,null,null,null,null,null,null,null,null],[427,1,81,"Xanomeline High Dose",null,"","","01-709-1029","ADSL","EFFFL","Efficacy Population Flag",null,null,null,"Y","","",74,null,null,null,null,null,null,null,null,null,null],[428,1,81,"Xanomeline High Dose",null,"","","01-703-1439","ADSL","EFFFL","Efficacy Population Flag",null,null,null,"Y","","",74,null,null,null,null,null,null,null,null,null,null],[429,1,81,"Xanomeline High Dose",null,"","","01-708-1347","ADSL","EFFFL","Efficacy Population Flag",null,null,null,"Y","","",74,null,null,null,null,null,null,null,null,null,null],[430,1,81,"Xanomeline High Dose",null,"","","01-716-1071","ADSL","EFFFL","Efficacy Population Flag",null,null,null,"Y","","",74,null,null,null,null,null,null,null,null,null,null],[431,1,81,"Xanomeline High Dose",null,"","","01-716-1447","ADSL","EFFFL","Efficacy Population Flag",null,null,null,"Y","","",74,null,null,null,null,null,null,null,null,null,null],[432,1,81,"Xanomeline High Dose",null,"","","01-710-1006","ADSL","EFFFL","Efficacy Population Flag",null,null,null,"Y","","",74,null,null,null,null,null,null,null,null,null,null],[433,1,81,"Xanomeline High Dose",null,"","","01-713-1209","ADSL","EFFFL","Efficacy Population Flag",null,null,null,"Y","","",74,null,null,null,null,null,null,null,null,null,null],[434,1,81,"Xanomeline High Dose",null,"","","01-708-1347","ADSL","EFFFL","Efficacy Population Flag",null,null,null,"Y","","",74,null,null,null,null,null,null,null,null,null,null],[435,1,81,"Xanomeline High Dose",null,"","","01-708-1216","ADSL","EFFFL","Efficacy Population Flag",null,null,null,"Y","","",74,null,null,null,null,null,null,null,null,null,null],[436,1,81,"Xanomeline High Dose",null,"","","01-706-1049","ADSL","EFFFL","Efficacy Population Flag",null,null,null,"Y","","",74,null,null,null,null,null,null,null,null,null,null],[437,1,81,"Xanomeline High Dose",null,"","","01-710-1249","ADSL","EFFFL","Efficacy Population Flag",null,null,null,"Y","","",74,null,null,null,null,null,null,null,null,null,null],[438,1,81,"Xanomeline High Dose",null,"","","01-710-1070","ADSL","EFFFL","Efficacy Population Flag",null,null,null,"Y","","",74,null,null,null,null,null,null,null,null,null,null],[439,1,81,"Xanomeline High Dose",null,"","","01-718-1328","ADSL","EFFFL","Efficacy Population Flag",null,null,null,"Y","","",74,null,null,null,null,null,null,null,null,null,null],[440,1,81,"Xanomeline High Dose",null,"","","01-714-1425","ADSL","EFFFL","Efficacy Population Flag",null,null,null,"Y","","",74,null,null,null,null,null,null,null,null,null,null],[441,1,81,"Xanomeline High Dose",null,"","","01-709-1099","ADSL","EFFFL","Efficacy Population Flag",null,null,null,"Y","","",74,null,null,null,null,null,null,null,null,null,null],[442,1,81,"Xanomeline High Dose",null,"","","01-705-1310","ADSL","EFFFL","Efficacy Population Flag",null,null,null,"Y","","",74,null,null,null,null,null,null,null,null,null,null],[443,1,81,"Xanomeline High Dose",null,"","","01-705-1303","ADSL","EFFFL","Efficacy Population Flag",null,null,null,"Y","","",74,null,null,null,null,null,null,null,null,null,null],[444,1,81,"Xanomeline High Dose",null,"","","01-704-1266","ADSL","EFFFL","Efficacy Population Flag",null,null,null,"Y","","",74,null,null,null,null,null,null,null,null,null,null],[445,1,81,"Xanomeline High Dose",null,"","","01-703-1439","ADSL","EFFFL","Efficacy Population Flag",null,null,null,"Y","","",74,null,null,null,null,null,null,null,null,null,null],[446,1,81,"Xanomeline High Dose",null,"","","01-704-1241","ADSL","EFFFL","Efficacy Population Flag",null,null,null,"Y","","",74,null,null,null,null,null,null,null,null,null,null],[447,1,81,"Xanomeline High Dose",null,"","","01-704-1017","ADSL","EFFFL","Efficacy Population Flag",null,null,null,"Y","","",74,null,null,null,null,null,null,null,null,null,null],[448,1,81,"Xanomeline High Dose",null,"","","01-703-1258","ADSL","EFFFL","Efficacy Population Flag",null,null,null,"Y","","",74,null,null,null,null,null,null,null,null,null,null],[449,1,81,"Xanomeline High Dose",null,"","","01-701-1360","ADSL","EFFFL","Efficacy Population Flag",null,null,null,"Y","","",74,null,null,null,null,null,null,null,null,null,null],[450,1,81,"Xanomeline High Dose",null,"","","01-701-1180","ADSL","EFFFL","Efficacy Population Flag",null,null,null,"Y","","",74,null,null,null,null,null,null,null,null,null,null],[451,1,81,"Xanomeline High Dose",null,"","","01-701-1034","ADSL","EFFFL","Efficacy Population Flag",null,null,null,"Y","","",74,null,null,null,null,null,null,null,null,null,null],[452,1,81,"Xanomeline High Dose",null,"","","01-701-1133","ADSL","EFFFL","Efficacy Population Flag",null,null,null,"Y","","",74,null,null,null,null,null,null,null,null,null,null],[453,1,81,"Xanomeline High Dose",null,"","","01-705-1303","ADSL","EFFFL","Efficacy Population Flag",null,null,null,"Y","","",74,null,null,null,null,null,null,null,null,null,null],[454,1,81,"Xanomeline High Dose",null,"","","01-708-1216","ADSL","EFFFL","Efficacy Population Flag",null,null,null,"Y","","",74,null,null,null,null,null,null,null,null,null,null],[455,1,81,"Xanomeline High Dose",null,"","","01-701-1287","ADSL","EFFFL","Efficacy Population Flag",null,null,null,"Y","","",74,null,null,null,null,null,null,null,null,null,null],[456,1,81,"Xanomeline High Dose",null,"","","01-708-1406","ADSL","EFFFL","Efficacy Population Flag",null,null,null,"Y","","",74,null,null,null,null,null,null,null,null,null,null],[457,1,81,"Xanomeline High Dose",null,"","","01-706-1049","ADSL","EFFFL","Efficacy Population Flag",null,null,null,"Y","","",74,null,null,null,null,null,null,null,null,null,null],[458,1,81,"Xanomeline High Dose",null,"","","01-704-1074","ADSL","EFFFL","Efficacy Population Flag",null,null,null,"Y","","",74,null,null,null,null,null,null,null,null,null,null],[459,1,81,"Xanomeline High Dose",null,"","","01-709-1099","ADSL","EFFFL","Efficacy Population Flag",null,null,null,"Y","","",74,null,null,null,null,null,null,null,null,null,null],[460,1,81,"Xanomeline High Dose",null,"","","01-710-1006","ADSL","EFFFL","Efficacy Population Flag",null,null,null,"Y","","",74,null,null,null,null,null,null,null,null,null,null],[461,1,81,"Xanomeline High Dose",null,"","","01-704-1008","ADSL","EFFFL","Efficacy Population Flag",null,null,null,"Y","","",74,null,null,null,null,null,null,null,null,null,null],[462,1,81,"Xanomeline High Dose",null,"","","01-708-1178","ADSL","EFFFL","Efficacy Population Flag",null,null,null,"Y","","",74,null,null,null,null,null,null,null,null,null,null],[463,1,81,"Xanomeline High Dose",null,"","","01-703-1295","ADSL","EFFFL","Efficacy Population Flag",null,null,null,"Y","","",74,null,null,null,null,null,null,null,null,null,null],[464,1,81,"Xanomeline High Dose",null,"","","01-708-1336","ADSL","EFFFL","Efficacy Population Flag",null,null,null,"Y","","",74,null,null,null,null,null,null,null,null,null,null],[465,1,81,"Xanomeline High Dose",null,"","","01-705-1310","ADSL","EFFFL","Efficacy Population Flag",null,null,null,"Y","","",74,null,null,null,null,null,null,null,null,null,null],[466,1,81,"Xanomeline High Dose",null,"","","01-701-1239","ADSL","EFFFL","Efficacy Population Flag",null,null,null,"Y","","",74,null,null,null,null,null,null,null,null,null,null],[467,1,81,"Xanomeline High Dose",null,"","","01-718-1427","ADSL","EFFFL","Efficacy Population Flag",null,null,null,"Y","","",74,null,null,null,null,null,null,null,null,null,null],[468,1,81,"Xanomeline High Dose",null,"","","01-701-1146","ADSL","EFFFL","Efficacy Population Flag",null,null,null,"Y","","",74,null,null,null,null,null,null,null,null,null,null],[469,2,0,"Placebo",0,"Baseline","","01-708-1378","ADADAS","BASE","Baseline Value",null,19,null,"Y","Y","Y",79,24.1,12.19,21,5,61,null,null,null,null,null],[470,2,0,"Placebo",0,"Baseline","","01-708-1342","ADADAS","BASE","Baseline Value",null,13,null,"Y","Y","Y",79,24.1,12.19,21,5,61,null,null,null,null,null],[471,2,0,"Placebo",0,"Baseline","","01-708-1316","ADADAS","BASE","Baseline Value",null,28,null,"Y","Y","Y",79,24.1,12.19,21,5,61,null,null,null,null,null],[472,2,0,"Placebo",0,"Baseline","","01-708-1158","ADADAS","BASE","Baseline Value",null,18,null,"Y","Y","Y",79,24.1,12.19,21,5,61,null,null,null,null,null],[473,2,0,"Placebo",0,"Baseline","","01-708-1171","ADADAS","BASE","Baseline Value",null,37,null,"Y","Y","Y",79,24.1,12.19,21,5,61,null,null,null,null,null],[474,2,0,"Placebo",0,"Baseline","","01-708-1087","ADADAS","BASE","Baseline Value",null,26,null,"Y","Y","Y",79,24.1,12.19,21,5,61,null,null,null,null,null],[475,2,0,"Placebo",0,"Baseline","","01-706-1041","ADADAS","BASE","Baseline Value",null,31,null,"Y","Y","Y",79,24.1,12.19,21,5,61,null,null,null,null,null],[476,2,0,"Placebo",0,"Baseline","","01-705-1349","ADADAS","BASE","Baseline Value",null,24,null,"Y","Y","Y",79,24.1,12.19,21,5,61,null,null,null,null,null],[477,2,0,"Placebo",0,"Baseline","","01-705-1059","ADADAS","BASE","Baseline Value",null,29,null,"Y","Y","Y",79,24.1,12.19,21,5,61,null,null,null,null,null],[478,2,0,"Placebo",0,"Baseline","","01-704-1445","ADADAS","BASE","Baseline Value",null,8,null,"Y","Y","Y",79,24.1,12.19,21,5,61,null,null,null,null,null],[479,2,0,"Placebo",0,"Baseline","","01-704-1388","ADADAS","BASE","Baseline Value",null,17,null,"Y","Y","Y",79,24.1,12.19,21,5,61,null,null,null,null,null],[480,2,0,"Placebo",0,"Baseline","","01-704-1260","ADADAS","BASE","Baseline Value",null,25,null,"Y","Y","Y",79,24.1,12.19,21,5,61,null,null,null,null,null],[481,2,0,"Placebo",0,"Baseline","","01-704-1127","ADADAS","BASE","Baseline Value",null,19,null,"Y","Y","Y",79,24.1,12.19,21,5,61,null,null,null,null,null],[482,2,0,"Placebo",0,"Baseline","","01-704-1010","ADADAS","BASE","Baseline Value",null,26,null,"Y","Y","Y",79,24.1,12.19,21,5,61,null,null,null,null,null],[483,2,0,"Placebo",0,"Baseline","","01-703-1299","ADADAS","BASE","Baseline Value",null,5,null,"Y","Y","Y",79,24.1,12.19,21,5,61,null,null,null,null,null],[484,2,0,"Placebo",0,"Baseline","","01-704-1164","ADADAS","BASE","Baseline Value",null,21,null,"Y","Y","Y",79,24.1,12.19,21,5,61,null,null,null,null,null],[485,2,0,"Placebo",0,"Baseline","","01-703-1210","ADADAS","BASE","Baseline Value",null,23,null,"Y","Y","Y",79,24.1,12.19,21,5,61,null,null,null,null,null],[486,2,0,"Placebo",0,"Baseline","","01-704-1351","ADADAS","BASE","Baseline Value",null,17,null,"Y","Y","Y",79,24.1,12.19,21,5,61,null,null,null,null,null],[487,2,0,"Placebo",0,"Baseline","","01-704-1233","ADADAS","BASE","Baseline Value",null,32,null,"Y","Y","Y",79,24.1,12.19,21,5,61,null,null,null,null,null],[488,2,0,"Placebo",0,"Baseline","","01-703-1175","ADADAS","BASE","Baseline Value",null,61,null,"Y","Y","Y",79,24.1,12.19,21,5,61,null,null,null,null,null],[489,2,0,"Placebo",0,"Baseline","","01-703-1100","ADADAS","BASE","Baseline Value",null,31,null,"Y","Y","Y",79,24.1,12.19,21,5,61,null,null,null,null,null],[490,2,0,"Placebo",0,"Baseline","","01-703-1042","ADADAS","BASE","Baseline Value",null,14,null,"Y","Y","Y",79,24.1,12.19,21,5,61,null,null,null,null,null],[491,2,0,"Placebo",0,"Baseline","","01-704-1435","ADADAS","BASE","Baseline Value",null,20,null,"Y","Y","Y",79,24.1,12.19,21,5,61,null,null,null,null,null],[492,2,0,"Placebo",0,"Baseline","","01-701-1440","ADADAS","BASE","Baseline Value",null,12,null,"Y","Y","Y",79,24.1,12.19,21,5,61,null,null,null,null,null],[493,2,0,"Placebo",0,"Baseline","","01-701-1415","ADADAS","BASE","Baseline Value",null,21,null,"Y","Y","Y",79,24.1,12.19,21,5,61,null,null,null,null,null],[494,2,0,"Placebo",0,"Baseline","","01-701-1392","ADADAS","BASE","Baseline Value",null,12,null,"Y","Y","Y",79,24.1,12.19,21,5,61,null,null,null,null,null],[495,2,0,"Placebo",0,"Baseline","","01-701-1387","ADADAS","BASE","Baseline Value",null,44,null,"Y","Y","Y",79,24.1,12.19,21,5,61,null,null,null,null,null],[496,2,0,"Placebo",0,"Baseline","","01-705-1282","ADADAS","BASE","Baseline Value",null,50,null,"Y","Y","Y",79,24.1,12.19,21,5,61,null,null,null,null,null],[497,2,0,"Placebo",0,"Baseline","","01-701-1363","ADADAS","BASE","Baseline Value",null,15,null,"Y","Y","Y",79,24.1,12.19,21,5,61,null,null,null,null,null],[498,2,0,"Placebo",0,"Baseline","","01-707-1206","ADADAS","BASE","Baseline Value",null,21,null,"Y","Y","Y",79,24.1,12.19,21,5,61,null,null,null,null,null],[499,2,0,"Placebo",0,"Baseline","","01-701-1345","ADADAS","BASE","Baseline Value",null,13,null,"Y","Y","Y",79,24.1,12.19,21,5,61,null,null,null,null,null],[500,2,0,"Placebo",0,"Baseline","","01-701-1234","ADADAS","BASE","Baseline Value",null,7,null,"Y","Y","Y",79,24.1,12.19,21,5,61,null,null,null,null,null],[501,2,0,"Placebo",0,"Baseline","","01-701-1203","ADADAS","BASE","Baseline Value",null,22,null,"Y","Y","Y",79,24.1,12.19,21,5,61,null,null,null,null,null],[502,2,0,"Placebo",0,"Baseline","","01-709-1001","ADADAS","BASE","Baseline Value",null,28,null,"Y","Y","Y",79,24.1,12.19,21,5,61,null,null,null,null,null],[503,2,0,"Placebo",0,"Baseline","","01-708-1253","ADADAS","BASE","Baseline Value",null,48,null,"Y","Y","Y",79,24.1,12.19,21,5,61,null,null,null,null,null],[504,2,0,"Placebo",0,"Baseline","","01-701-1153","ADADAS","BASE","Baseline Value",null,48,null,"Y","Y","Y",79,24.1,12.19,21,5,61,null,null,null,null,null],[505,2,0,"Placebo",0,"Baseline","","01-708-1286","ADADAS","BASE","Baseline Value",null,38.6206896552,null,"Y","Y","Y",79,24.1,12.19,21,5,61,null,null,null,null,null],[506,2,0,"Placebo",0,"Baseline","","01-701-1130","ADADAS","BASE","Baseline Value",null,19,null,"Y","Y","Y",79,24.1,12.19,21,5,61,null,null,null,null,null],[507,2,0,"Placebo",0,"Baseline","","01-701-1118","ADADAS","BASE","Baseline Value",null,26,null,"Y","Y","Y",79,24.1,12.19,21,5,61,null,null,null,null,null],[508,2,0,"Placebo",0,"Baseline","","01-701-1047","ADADAS","BASE","Baseline Value",null,10,null,"Y","Y","Y",79,24.1,12.19,21,5,61,null,null,null,null,null],[509,2,0,"Placebo",0,"Baseline","","01-701-1023","ADADAS","BASE","Baseline Value",null,13,null,"Y","Y","Y",79,24.1,12.19,21,5,61,null,null,null,null,null],[510,2,0,"Placebo",0,"Baseline","","01-708-1296","ADADAS","BASE","Baseline Value",null,29,null,"Y","Y","Y",79,24.1,12.19,21,5,61,null,null,null,null,null],[511,2,0,"Placebo",0,"Baseline","","01-701-1015","ADADAS","BASE","Baseline Value",null,13,null,"Y","Y","Y",79,24.1,12.19,21,5,61,null,null,null,null,null],[512,2,0,"Placebo",0,"Baseline","","01-718-1355","ADADAS","BASE","Baseline Value",null,37,null,"Y","Y","Y",79,24.1,12.19,21,5,61,null,null,null,null,null],[513,2,0,"Placebo",0,"Baseline","","01-718-1150","ADADAS","BASE","Baseline Value",null,14,null,"Y","Y","Y",79,24.1,12.19,21,5,61,null,null,null,null,null],[514,2,0,"Placebo",0,"Baseline","","01-718-1139","ADADAS","BASE","Baseline Value",null,40,null,"Y","Y","Y",79,24.1,12.19,21,5,61,null,null,null,null,null],[515,2,0,"Placebo",0,"Baseline","","01-717-1201","ADADAS","BASE","Baseline Value",null,21,null,"Y","Y","Y",79,24.1,12.19,21,5,61,null,null,null,null,null],[516,2,0,"Placebo",0,"Baseline","","01-716-1308","ADADAS","BASE","Baseline Value",null,37,null,"Y","Y","Y",79,24.1,12.19,21,5,61,null,null,null,null,null],[517,2,0,"Placebo",0,"Baseline","","01-716-1177","ADADAS","BASE","Baseline Value",null,5,null,"Y","Y","Y",79,24.1,12.19,21,5,61,null,null,null,null,null],[518,2,0,"Placebo",0,"Baseline","","01-715-1397","ADADAS","BASE","Baseline Value",null,18,null,"Y","Y","Y",79,24.1,12.19,21,5,61,null,null,null,null,null],[519,2,0,"Placebo",0,"Baseline","","01-716-1044","ADADAS","BASE","Baseline Value",null,21,null,"Y","Y","Y",79,24.1,12.19,21,5,61,null,null,null,null,null],[520,2,0,"Placebo",0,"Baseline","","01-716-1026","ADADAS","BASE","Baseline Value",null,41,null,"Y","Y","Y",79,24.1,12.19,21,5,61,null,null,null,null,null],[521,2,0,"Placebo",0,"Baseline","","01-715-1207","ADADAS","BASE","Baseline Value",null,16,null,"Y","Y","Y",79,24.1,12.19,21,5,61,null,null,null,null,null],[522,2,0,"Placebo",0,"Baseline","","01-714-1035","ADADAS","BASE","Baseline Value",null,25,null,"Y","Y","Y",79,24.1,12.19,21,5,61,null,null,null,null,null],[523,2,0,"Placebo",0,"Baseline","","01-713-1269","ADADAS","BASE","Baseline Value",null,10,null,"Y","Y","Y",79,24.1,12.19,21,5,61,null,null,null,null,null],[524,2,0,"Placebo",0,"Baseline","","01-714-1375","ADADAS","BASE","Baseline Value",null,31,null,"Y","Y","Y",79,24.1,12.19,21,5,61,null,null,null,null,null],[525,2,0,"Placebo",0,"Baseline","","01-713-1256","ADADAS","BASE","Baseline Value",null,47,null,"Y","Y","Y",79,24.1,12.19,21,5,61,null,null,null,null,null],[526,2,0,"Placebo",0,"Baseline","","01-713-1179","ADADAS","BASE","Baseline Value",null,12,null,"Y","Y","Y",79,24.1,12.19,21,5,61,null,null,null,null,null],[527,2,0,"Placebo",0,"Baseline","","01-716-1024","ADADAS","BASE","Baseline Value",null,15,null,"Y","Y","Y",79,24.1,12.19,21,5,61,null,null,null,null,null],[528,2,0,"Placebo",0,"Baseline","","01-711-1036","ADADAS","BASE","Baseline Value",null,25,null,"Y","Y","Y",79,24.1,12.19,21,5,61,null,null,null,null,null],[529,2,0,"Placebo",0,"Baseline","","01-716-1108","ADADAS","BASE","Baseline Value",null,12,null,"Y","Y","Y",79,24.1,12.19,21,5,61,null,null,null,null,null],[530,2,0,"Placebo",0,"Baseline","","01-710-1368","ADADAS","BASE","Baseline Value",null,42,null,"Y","Y","Y",79,24.1,12.19,21,5,61,null,null,null,null,null],[531,2,0,"Placebo",0,"Baseline","","01-710-1315","ADADAS","BASE","Baseline Value",null,28,null,"Y","Y","Y",79,24.1,12.19,21,5,61,null,null,null,null,null],[532,2,0,"Placebo",0,"Baseline","","01-710-1264","ADADAS","BASE","Baseline Value",null,32,null,"Y","Y","Y",79,24.1,12.19,21,5,61,null,null,null,null,null],[533,2,0,"Placebo",0,"Baseline","","01-710-1183","ADADAS","BASE","Baseline Value",null,15,null,"Y","Y","Y",79,24.1,12.19,21,5,61,null,null,null,null,null],[534,2,0,"Placebo",0,"Baseline","","01-710-1078","ADADAS","BASE","Baseline Value",null,25,null,"Y","Y","Y",79,24.1,12.19,21,5,61,null,null,null,null,null],[535,2,0,"Placebo",0,"Baseline","","01-716-1160","ADADAS","BASE","Baseline Value",null,15,null,"Y","Y","Y",79,24.1,12.19,21,5,61,null,null,null,null,null],[536,2,0,"Placebo",0,"Baseline","","01-716-1441","ADADAS","BASE","Baseline Value",null,12,null,"Y","Y","Y",79,24.1,12.19,21,5,61,null,null,null,null,null],[537,2,0,"Placebo",0,"Baseline","","01-710-1077","ADADAS","BASE","Baseline Value",null,21,null,"Y","Y","Y",79,24.1,12.19,21,5,61,null,null,null,null,null],[538,2,0,"Placebo",0,"Baseline","","01-710-1060","ADADAS","BASE","Baseline Value",null,15,null,"Y","Y","Y",79,24.1,12.19,21,5,61,null,null,null,null,null],[539,2,0,"Placebo",0,"Baseline","","01-710-1027","ADADAS","BASE","Baseline Value",null,19,null,"Y","Y","Y",79,24.1,12.19,21,5,61,null,null,null,null,null],[540,2,0,"Placebo",0,"Baseline","","01-709-1339","ADADAS","BASE","Baseline Value",null,18,null,"Y","Y","Y",79,24.1,12.19,21,5,61,null,null,null,null,null],[541,2,0,"Placebo",0,"Baseline","","01-717-1344","ADADAS","BASE","Baseline Value",null,19,null,"Y","Y","Y",79,24.1,12.19,21,5,61,null,null,null,null,null],[542,2,0,"Placebo",0,"Baseline","","01-718-1172","ADADAS","BASE","Baseline Value",null,49,null,"Y","Y","Y",79,24.1,12.19,21,5,61,null,null,null,null,null],[543,2,0,"Placebo",0,"Baseline","","01-709-1312","ADADAS","BASE","Baseline Value",null,21,null,"Y","Y","Y",79,24.1,12.19,21,5,61,null,null,null,null,null],[544,2,0,"Placebo",0,"Baseline","","01-709-1306","ADADAS","BASE","Baseline Value",null,31,null,"Y","Y","Y",79,24.1,12.19,21,5,61,null,null,null,null,null],[545,2,0,"Placebo",0,"Baseline","","01-709-1301","ADADAS","BASE","Baseline Value",null,51,null,"Y","Y","Y",79,24.1,12.19,21,5,61,null,null,null,null,null],[546,2,0,"Placebo",0,"Baseline","","01-709-1259","ADADAS","BASE","Baseline Value",null,15,null,"Y","Y","Y",79,24.1,12.19,21,5,61,null,null,null,null,null],[547,2,0,"Placebo",0,"Baseline","","01-709-1088","ADADAS","BASE","Baseline Value",null,17,null,"Y","Y","Y",79,24.1,12.19,21,5,61,null,null,null,null,null],[548,2,54,"Xanomeline Low Dose",0,"Baseline","","01-705-1292","ADADAS","BASE","Baseline Value",null,17,null,"Y","Y","Y",81,24.4,12.92,21,5,57,null,null,null,null,null],[549,2,54,"Xanomeline Low Dose",0,"Baseline","","01-705-1199","ADADAS","BASE","Baseline Value",null,10,null,"Y","Y","Y",81,24.4,12.92,21,5,57,null,null,null,null,null],[550,2,54,"Xanomeline Low Dose",0,"Baseline","","01-701-1317","ADADAS","BASE","Baseline Value",null,13,null,"Y","Y","Y",81,24.4,12.92,21,5,57,null,null,null,null,null],[551,2,54,"Xanomeline Low Dose",0,"Baseline","","01-701-1442","ADADAS","BASE","Baseline Value",null,29,null,"Y","Y","Y",81,24.4,12.92,21,5,57,null,null,null,null,null],[552,2,54,"Xanomeline Low Dose",0,"Baseline","","01-703-1379","ADADAS","BASE","Baseline Value",null,51,null,"Y","Y","Y",81,24.4,12.92,21,5,57,null,null,null,null,null],[553,2,54,"Xanomeline Low Dose",0,"Baseline","","01-708-1428","ADADAS","BASE","Baseline Value",null,17,null,"Y","Y","Y",81,24.4,12.92,21,5,57,null,null,null,null,null],[554,2,54,"Xanomeline Low Dose",0,"Baseline","","01-717-1004","ADADAS","BASE","Baseline Value",null,52,null,"Y","Y","Y",81,24.4,12.92,21,5,57,null,null,null,null,null],[555,2,54,"Xanomeline Low Dose",0,"Baseline","","01-709-1217","ADADAS","BASE","Baseline Value",null,25,null,"Y","Y","Y",81,24.4,12.92,21,5,57,null,null,null,null,null],[556,2,54,"Xanomeline Low Dose",0,"Baseline","","01-701-1188","ADADAS","BASE","Baseline Value",null,8,null,"Y","Y","Y",81,24.4,12.92,21,5,57,null,null,null,null,null],[557,2,54,"Xanomeline Low Dose",0,"Baseline","","01-716-1063","ADADAS","BASE","Baseline Value",null,30,null,"Y","Y","Y",81,24.4,12.92,21,5,57,null,null,null,null,null],[558,2,54,"Xanomeline Low Dose",0,"Baseline","","01-715-1107","ADADAS","BASE","Baseline Value",null,14,null,"Y","Y","Y",81,24.4,12.92,21,5,57,null,null,null,null,null],[559,2,54,"Xanomeline Low Dose",0,"Baseline","","01-710-1235","ADADAS","BASE","Baseline Value",null,11,null,"Y","Y","Y",81,24.4,12.92,21,5,57,null,null,null,null,null],[560,2,54,"Xanomeline Low Dose",0,"Baseline","","01-710-1385","ADADAS","BASE","Baseline Value",null,27,null,"Y","Y","Y",81,24.4,12.92,21,5,57,null,null,null,null,null],[561,2,54,"Xanomeline Low Dose",0,"Baseline","","01-713-1073","ADADAS","BASE","Baseline Value",null,30,null,"Y","Y","Y",81,24.4,12.92,21,5,57,null,null,null,null,null],[562,2,54,"Xanomeline Low Dose",0,"Baseline","","01-718-1066","ADADAS","BASE","Baseline Value",null,23,null,"Y","Y","Y",81,24.4,12.92,21,5,57,null,null,null,null,null],[563,2,54,"Xanomeline Low Dose",0,"Baseline","","01-718-1254","ADADAS","BASE","Baseline Value",null,25,null,"Y","Y","Y",81,24.4,12.92,21,5,57,null,null,null,null,null],[564,2,54,"Xanomeline Low Dose",0,"Baseline","","01-718-1250","ADADAS","BASE","Baseline Value",null,20,null,"Y","Y","Y",81,24.4,12.92,21,5,57,null,null,null,null,null],[565,2,54,"Xanomeline Low Dose",0,"Baseline","","01-718-1170","ADADAS","BASE","Baseline Value",null,20,null,"Y","Y","Y",81,24.4,12.92,21,5,57,null,null,null,null,null],[566,2,54,"Xanomeline Low Dose",0,"Baseline","","01-718-1079","ADADAS","BASE","Baseline Value",null,35,null,"Y","Y","Y",81,24.4,12.92,21,5,57,null,null,null,null,null],[567,2,54,"Xanomeline Low Dose",0,"Baseline","","01-717-1446","ADADAS","BASE","Baseline Value",null,19,null,"Y","Y","Y",81,24.4,12.92,21,5,57,null,null,null,null,null],[568,2,54,"Xanomeline Low Dose",0,"Baseline","","01-716-1298","ADADAS","BASE","Baseline Value",null,36,null,"Y","Y","Y",81,24.4,12.92,21,5,57,null,null,null,null,null],[569,2,54,"Xanomeline Low Dose",0,"Baseline","","01-716-1311","ADADAS","BASE","Baseline Value",null,44,null,"Y","Y","Y",81,24.4,12.92,21,5,57,null,null,null,null,null],[570,2,54,"Xanomeline Low Dose",0,"Baseline","","01-716-1151","ADADAS","BASE","Baseline Value",null,27,null,"Y","Y","Y",81,24.4,12.92,21,5,57,null,null,null,null,null],[571,2,54,"Xanomeline Low Dose",0,"Baseline","","01-716-1103","ADADAS","BASE","Baseline Value",null,20,null,"Y","Y","Y",81,24.4,12.92,21,5,57,null,null,null,null,null],[572,2,54,"Xanomeline Low Dose",0,"Baseline","","01-715-1405","ADADAS","BASE","Baseline Value",null,51,null,"Y","Y","Y",81,24.4,12.92,21,5,57,null,null,null,null,null],[573,2,54,"Xanomeline Low Dose",0,"Baseline","","01-715-1085","ADADAS","BASE","Baseline Value",null,14,null,"Y","Y","Y",81,24.4,12.92,21,5,57,null,null,null,null,null],[574,2,54,"Xanomeline Low Dose",0,"Baseline","","01-714-1195","ADADAS","BASE","Baseline Value",null,25,null,"Y","Y","Y",81,24.4,12.92,21,5,57,null,null,null,null,null],[575,2,54,"Xanomeline Low Dose",0,"Baseline","","01-714-1068","ADADAS","BASE","Baseline Value",null,21,null,"Y","Y","Y",81,24.4,12.92,21,5,57,null,null,null,null,null],[576,2,54,"Xanomeline Low Dose",0,"Baseline","","01-713-1043","ADADAS","BASE","Baseline Value",null,20,null,"Y","Y","Y",81,24.4,12.92,21,5,57,null,null,null,null,null],[577,2,54,"Xanomeline Low Dose",0,"Baseline","","01-711-1143","ADADAS","BASE","Baseline Value",null,11,null,"Y","Y","Y",81,24.4,12.92,21,5,57,null,null,null,null,null],[578,2,54,"Xanomeline Low Dose",0,"Baseline","","01-710-1358","ADADAS","BASE","Baseline Value",null,28,null,"Y","Y","Y",81,24.4,12.92,21,5,57,null,null,null,null,null],[579,2,54,"Xanomeline Low Dose",0,"Baseline","","01-710-1300","ADADAS","BASE","Baseline Value",null,37,null,"Y","Y","Y",81,24.4,12.92,21,5,57,null,null,null,null,null],[580,2,54,"Xanomeline Low Dose",0,"Baseline","","01-713-1448","ADADAS","BASE","Baseline Value",null,19,null,"Y","Y","Y",81,24.4,12.92,21,5,57,null,null,null,null,null],[581,2,54,"Xanomeline Low Dose",0,"Baseline","","01-710-1270","ADADAS","BASE","Baseline Value",null,38,null,"Y","Y","Y",81,24.4,12.92,21,5,57,null,null,null,null,null],[582,2,54,"Xanomeline Low Dose",0,"Baseline","","01-710-1166","ADADAS","BASE","Baseline Value",null,18,null,"Y","Y","Y",81,24.4,12.92,21,5,57,null,null,null,null,null],[583,2,54,"Xanomeline Low Dose",0,"Baseline","","01-710-1154","ADADAS","BASE","Baseline Value",null,49,null,"Y","Y","Y",81,24.4,12.92,21,5,57,null,null,null,null,null],[584,2,54,"Xanomeline Low Dose",0,"Baseline","","01-710-1053","ADADAS","BASE","Baseline Value",null,15,null,"Y","Y","Y",81,24.4,12.92,21,5,57,null,null,null,null,null],[585,2,54,"Xanomeline Low Dose",0,"Baseline","","01-710-1045","ADADAS","BASE","Baseline Value",null,29,null,"Y","Y","Y",81,24.4,12.92,21,5,57,null,null,null,null,null],[586,2,54,"Xanomeline Low Dose",0,"Baseline","","01-710-1002","ADADAS","BASE","Baseline Value",null,16,null,"Y","Y","Y",81,24.4,12.92,21,5,57,null,null,null,null,null],[587,2,54,"Xanomeline Low Dose",0,"Baseline","","01-716-1094","ADADAS","BASE","Baseline Value",null,48,null,"Y","Y","Y",81,24.4,12.92,21,5,57,null,null,null,null,null],[588,2,54,"Xanomeline Low Dose",0,"Baseline","","01-709-1326","ADADAS","BASE","Baseline Value",null,43.4482758621,null,"Y","Y","Y",81,24.4,12.92,21,5,57,null,null,null,null,null],[589,2,54,"Xanomeline Low Dose",0,"Baseline","","01-709-1285","ADADAS","BASE","Baseline Value",null,29,null,"Y","Y","Y",81,24.4,12.92,21,5,57,null,null,null,null,null],[590,2,54,"Xanomeline Low Dose",0,"Baseline","","01-709-1102","ADADAS","BASE","Baseline Value",null,39.8275862069,null,"Y","Y","Y",81,24.4,12.92,21,5,57,null,null,null,null,null],[591,2,54,"Xanomeline Low Dose",0,"Baseline","","01-709-1081","ADADAS","BASE","Baseline Value",null,24,null,"Y","Y","Y",81,24.4,12.92,21,5,57,null,null,null,null,null],[592,2,54,"Xanomeline Low Dose",0,"Baseline","","01-709-1020","ADADAS","BASE","Baseline Value",null,17,null,"Y","Y","Y",81,24.4,12.92,21,5,57,null,null,null,null,null],[593,2,54,"Xanomeline Low Dose",0,"Baseline","","01-708-1353","ADADAS","BASE","Baseline Value",null,26,null,"Y","Y","Y",81,24.4,12.92,21,5,57,null,null,null,null,null],[594,2,54,"Xanomeline Low Dose",0,"Baseline","","01-708-1348","ADADAS","BASE","Baseline Value",null,41,null,"Y","Y","Y",81,24.4,12.92,21,5,57,null,null,null,null,null],[595,2,54,"Xanomeline Low Dose",0,"Baseline","","01-708-1297","ADADAS","BASE","Baseline Value",null,12,null,"Y","Y","Y",81,24.4,12.92,21,5,57,null,null,null,null,null],[596,2,54,"Xanomeline Low Dose",0,"Baseline","","01-708-1272","ADADAS","BASE","Baseline Value",null,22,null,"Y","Y","Y",81,24.4,12.92,21,5,57,null,null,null,null,null],[597,2,54,"Xanomeline Low Dose",0,"Baseline","","01-708-1019","ADADAS","BASE","Baseline Value",null,25,null,"Y","Y","Y",81,24.4,12.92,21,5,57,null,null,null,null,null],[598,2,54,"Xanomeline Low Dose",0,"Baseline","","01-708-1032","ADADAS","BASE","Baseline Value",null,12,null,"Y","Y","Y",81,24.4,12.92,21,5,57,null,null,null,null,null],[599,2,54,"Xanomeline Low Dose",0,"Baseline","","01-705-1431","ADADAS","BASE","Baseline Value",null,19,null,"Y","Y","Y",81,24.4,12.92,21,5,57,null,null,null,null,null],[600,2,54,"Xanomeline Low Dose",0,"Baseline","","01-705-1393","ADADAS","BASE","Baseline Value",null,20,null,"Y","Y","Y",81,24.4,12.92,21,5,57,null,null,null,null,null],[601,2,54,"Xanomeline Low Dose",0,"Baseline","","01-704-1218","ADADAS","BASE","Baseline Value",null,22,null,"Y","Y","Y",81,24.4,12.92,21,5,57,null,null,null,null,null],[602,2,54,"Xanomeline Low Dose",0,"Baseline","","01-704-1325","ADADAS","BASE","Baseline Value",null,20,null,"Y","Y","Y",81,24.4,12.92,21,5,57,null,null,null,null,null],[603,2,54,"Xanomeline Low Dose",0,"Baseline","","01-705-1031","ADADAS","BASE","Baseline Value",null,5,null,"Y","Y","Y",81,24.4,12.92,21,5,57,null,null,null,null,null],[604,2,54,"Xanomeline Low Dose",0,"Baseline","","01-704-1114","ADADAS","BASE","Baseline Value",null,21,null,"Y","Y","Y",81,24.4,12.92,21,5,57,null,null,null,null,null],[605,2,54,"Xanomeline Low Dose",0,"Baseline","","01-704-1009","ADADAS","BASE","Baseline Value",null,22,null,"Y","Y","Y",81,24.4,12.92,21,5,57,null,null,null,null,null],[606,2,54,"Xanomeline Low Dose",0,"Baseline","","01-703-1197","ADADAS","BASE","Baseline Value",null,44,null,"Y","Y","Y",81,24.4,12.92,21,5,57,null,null,null,null,null],[607,2,54,"Xanomeline Low Dose",0,"Baseline","","01-703-1182","ADADAS","BASE","Baseline Value",null,11,null,"Y","Y","Y",81,24.4,12.92,21,5,57,null,null,null,null,null],[608,2,54,"Xanomeline Low Dose",0,"Baseline","","01-704-1025","ADADAS","BASE","Baseline Value",null,19,null,"Y","Y","Y",81,24.4,12.92,21,5,57,null,null,null,null,null],[609,2,54,"Xanomeline Low Dose",0,"Baseline","","01-703-1119","ADADAS","BASE","Baseline Value",null,35,null,"Y","Y","Y",81,24.4,12.92,21,5,57,null,null,null,null,null],[610,2,54,"Xanomeline Low Dose",0,"Baseline","","01-706-1384","ADADAS","BASE","Baseline Value",null,29,null,"Y","Y","Y",81,24.4,12.92,21,5,57,null,null,null,null,null],[611,2,54,"Xanomeline Low Dose",0,"Baseline","","01-703-1086","ADADAS","BASE","Baseline Value",null,42,null,"Y","Y","Y",81,24.4,12.92,21,5,57,null,null,null,null,null],[612,2,54,"Xanomeline Low Dose",0,"Baseline","","01-716-1157","ADADAS","BASE","Baseline Value",null,10,null,"Y","Y","Y",81,24.4,12.92,21,5,57,null,null,null,null,null],[613,2,54,"Xanomeline Low Dose",0,"Baseline","","01-702-1082","ADADAS","BASE","Baseline Value",null,9,null,"Y","Y","Y",81,24.4,12.92,21,5,57,null,null,null,null,null],[614,2,54,"Xanomeline Low Dose",0,"Baseline","","01-701-1429","ADADAS","BASE","Baseline Value",null,33,null,"Y","Y","Y",81,24.4,12.92,21,5,57,null,null,null,null,null],[615,2,54,"Xanomeline Low Dose",0,"Baseline","","01-701-1341","ADADAS","BASE","Baseline Value",null,7,null,"Y","Y","Y",81,24.4,12.92,21,5,57,null,null,null,null,null],[616,2,54,"Xanomeline Low Dose",0,"Baseline","","01-701-1324","ADADAS","BASE","Baseline Value",null,10,null,"Y","Y","Y",81,24.4,12.92,21,5,57,null,null,null,null,null],[617,2,54,"Xanomeline Low Dose",0,"Baseline","","01-701-1294","ADADAS","BASE","Baseline Value",null,9,null,"Y","Y","Y",81,24.4,12.92,21,5,57,null,null,null,null,null],[618,2,54,"Xanomeline Low Dose",0,"Baseline","","01-701-1211","ADADAS","BASE","Baseline Value",null,55,null,"Y","Y","Y",81,24.4,12.92,21,5,57,null,null,null,null,null],[619,2,54,"Xanomeline Low Dose",0,"Baseline","","01-707-1037","ADADAS","BASE","Baseline Value",null,17,null,"Y","Y","Y",81,24.4,12.92,21,5,57,null,null,null,null,null],[620,2,54,"Xanomeline Low Dose",0,"Baseline","","01-701-1192","ADADAS","BASE","Baseline Value",null,9,null,"Y","Y","Y",81,24.4,12.92,21,5,57,null,null,null,null,null],[621,2,54,"Xanomeline Low Dose",0,"Baseline","","01-708-1084","ADADAS","BASE","Baseline Value",null,17,null,"Y","Y","Y",81,24.4,12.92,21,5,57,null,null,null,null,null],[622,2,54,"Xanomeline Low Dose",0,"Baseline","","01-701-1115","ADADAS","BASE","Baseline Value",null,10,null,"Y","Y","Y",81,24.4,12.92,21,5,57,null,null,null,null,null],[623,2,54,"Xanomeline Low Dose",0,"Baseline","","01-716-1167","ADADAS","BASE","Baseline Value",null,32,null,"Y","Y","Y",81,24.4,12.92,21,5,57,null,null,null,null,null],[624,2,54,"Xanomeline Low Dose",0,"Baseline","","01-701-1111","ADADAS","BASE","Baseline Value",null,7,null,"Y","Y","Y",81,24.4,12.92,21,5,57,null,null,null,null,null],[625,2,54,"Xanomeline Low Dose",0,"Baseline","","01-701-1097","ADADAS","BASE","Baseline Value",null,56.724137931,null,"Y","Y","Y",81,24.4,12.92,21,5,57,null,null,null,null,null],[626,2,54,"Xanomeline Low Dose",0,"Baseline","","01-701-1033","ADADAS","BASE","Baseline Value",null,7,null,"Y","Y","Y",81,24.4,12.92,21,5,57,null,null,null,null,null],[627,2,54,"Xanomeline Low Dose",0,"Baseline","","01-704-1135","ADADAS","BASE","Baseline Value",null,19,null,"Y","Y","Y",81,24.4,12.92,21,5,57,null,null,null,null,null],[628,2,54,"Xanomeline Low Dose",0,"Baseline","","01-704-1120","ADADAS","BASE","Baseline Value",null,27,null,"Y","Y","Y",81,24.4,12.92,21,5,57,null,null,null,null,null],[629,2,81,"Xanomeline High Dose",0,"Baseline","","01-718-1427","ADADAS","BASE","Baseline Value",null,15,null,"Y","Y","Y",74,21.3,11.74,18,3,57,null,null,null,null,null],[630,2,81,"Xanomeline High Dose",0,"Baseline","","01-718-1371","ADADAS","BASE","Baseline Value",null,27,null,"Y","Y","Y",74,21.3,11.74,18,3,57,null,null,null,null,null],[631,2,81,"Xanomeline High Dose",0,"Baseline","","01-718-1328","ADADAS","BASE","Baseline Value",null,40,null,"Y","Y","Y",74,21.3,11.74,18,3,57,null,null,null,null,null],[632,2,81,"Xanomeline High Dose",0,"Baseline","","01-718-1101","ADADAS","BASE","Baseline Value",null,42,null,"Y","Y","Y",74,21.3,11.74,18,3,57,null,null,null,null,null],[633,2,81,"Xanomeline High Dose",0,"Baseline","","01-717-1357","ADADAS","BASE","Baseline Value",null,37,null,"Y","Y","Y",74,21.3,11.74,18,3,57,null,null,null,null,null],[634,2,81,"Xanomeline High Dose",0,"Baseline","","01-717-1109","ADADAS","BASE","Baseline Value",null,32,null,"Y","Y","Y",74,21.3,11.74,18,3,57,null,null,null,null,null],[635,2,81,"Xanomeline High Dose",0,"Baseline","","01-716-1229","ADADAS","BASE","Baseline Value",null,10,null,"Y","Y","Y",74,21.3,11.74,18,3,57,null,null,null,null,null],[636,2,81,"Xanomeline High Dose",0,"Baseline","","01-716-1364","ADADAS","BASE","Baseline Value",null,19,null,"Y","Y","Y",74,21.3,11.74,18,3,57,null,null,null,null,null],[637,2,81,"Xanomeline High Dose",0,"Baseline","","01-716-1373","ADADAS","BASE","Baseline Value",null,18,null,"Y","Y","Y",74,21.3,11.74,18,3,57,null,null,null,null,null],[638,2,81,"Xanomeline High Dose",0,"Baseline","","01-716-1071","ADADAS","BASE","Baseline Value",null,16,null,"Y","Y","Y",74,21.3,11.74,18,3,57,null,null,null,null,null],[639,2,81,"Xanomeline High Dose",0,"Baseline","","01-716-1030","ADADAS","BASE","Baseline Value",null,24,null,"Y","Y","Y",74,21.3,11.74,18,3,57,null,null,null,null,null],[640,2,81,"Xanomeline High Dose",0,"Baseline","","01-715-1319","ADADAS","BASE","Baseline Value",null,31,null,"Y","Y","Y",74,21.3,11.74,18,3,57,null,null,null,null,null],[641,2,81,"Xanomeline High Dose",0,"Baseline","","01-714-1288","ADADAS","BASE","Baseline Value",null,25,null,"Y","Y","Y",74,21.3,11.74,18,3,57,null,null,null,null,null],[642,2,81,"Xanomeline High Dose",0,"Baseline","","01-713-1209","ADADAS","BASE","Baseline Value",null,16,null,"Y","Y","Y",74,21.3,11.74,18,3,57,null,null,null,null,null],[643,2,81,"Xanomeline High Dose",0,"Baseline","","01-710-1408","ADADAS","BASE","Baseline Value",null,8,null,"Y","Y","Y",74,21.3,11.74,18,3,57,null,null,null,null,null],[644,2,81,"Xanomeline High Dose",0,"Baseline","","01-710-1278","ADADAS","BASE","Baseline Value",null,30,null,"Y","Y","Y",74,21.3,11.74,18,3,57,null,null,null,null,null],[645,2,81,"Xanomeline High Dose",0,"Baseline","","01-710-1249","ADADAS","BASE","Baseline Value",null,14,null,"Y","Y","Y",74,21.3,11.74,18,3,57,null,null,null,null,null],[646,2,81,"Xanomeline High Dose",0,"Baseline","","01-710-1187","ADADAS","BASE","Baseline Value",null,36,null,"Y","Y","Y",74,21.3,11.74,18,3,57,null,null,null,null,null],[647,2,81,"Xanomeline High Dose",0,"Baseline","","01-710-1142","ADADAS","BASE","Baseline Value",null,10,null,"Y","Y","Y",74,21.3,11.74,18,3,57,null,null,null,null,null],[648,2,81,"Xanomeline High Dose",0,"Baseline","","01-715-1321","ADADAS","BASE","Baseline Value",null,8,null,"Y","Y","Y",74,21.3,11.74,18,3,57,null,null,null,null,null],[649,2,81,"Xanomeline High Dose",0,"Baseline","","01-710-1070","ADADAS","BASE","Baseline Value",null,46,null,"Y","Y","Y",74,21.3,11.74,18,3,57,null,null,null,null,null],[650,2,81,"Xanomeline High Dose",0,"Baseline","","01-711-1012","ADADAS","BASE","Baseline Value",null,28,null,"Y","Y","Y",74,21.3,11.74,18,3,57,null,null,null,null,null],[651,2,81,"Xanomeline High Dose",0,"Baseline","","01-710-1006","ADADAS","BASE","Baseline Value",null,30,null,"Y","Y","Y",74,21.3,11.74,18,3,57,null,null,null,null,null],[652,2,81,"Xanomeline High Dose",0,"Baseline","","01-709-1424","ADADAS","BASE","Baseline Value",null,30,null,"Y","Y","Y",74,21.3,11.74,18,3,57,null,null,null,null,null],[653,2,81,"Xanomeline High Dose",0,"Baseline","","01-709-1309","ADADAS","BASE","Baseline Value",null,26,null,"Y","Y","Y",74,21.3,11.74,18,3,57,null,null,null,null,null],[654,2,81,"Xanomeline High Dose",0,"Baseline","","01-709-1238","ADADAS","BASE","Baseline Value",null,17,null,"Y","Y","Y",74,21.3,11.74,18,3,57,null,null,null,null,null],[655,2,81,"Xanomeline High Dose",0,"Baseline","","01-709-1168","ADADAS","BASE","Baseline Value",null,18,null,"Y","Y","Y",74,21.3,11.74,18,3,57,null,null,null,null,null],[656,2,81,"Xanomeline High Dose",0,"Baseline","","01-709-1029","ADADAS","BASE","Baseline Value",null,26,null,"Y","Y","Y",74,21.3,11.74,18,3,57,null,null,null,null,null],[657,2,81,"Xanomeline High Dose",0,"Baseline","","01-708-1406","ADADAS","BASE","Baseline Value",null,24,null,"Y","Y","Y",74,21.3,11.74,18,3,57,null,null,null,null,null],[658,2,81,"Xanomeline High Dose",0,"Baseline","","01-708-1347","ADADAS","BASE","Baseline Value",null,18,null,"Y","Y","Y",74,21.3,11.74,18,3,57,null,null,null,null,null],[659,2,81,"Xanomeline High Dose",0,"Baseline","","01-708-1216","ADADAS","BASE","Baseline Value",null,23,null,"Y","Y","Y",74,21.3,11.74,18,3,57,null,null,null,null,null],[660,2,81,"Xanomeline High Dose",0,"Baseline","","01-706-1049","ADADAS","BASE","Baseline Value",null,18,null,"Y","Y","Y",74,21.3,11.74,18,3,57,null,null,null,null,null],[661,2,81,"Xanomeline High Dose",0,"Baseline","","01-703-1076","ADADAS","BASE","Baseline Value",null,6,null,"Y","Y","Y",74,21.3,11.74,18,3,57,null,null,null,null,null],[662,2,81,"Xanomeline High Dose",0,"Baseline","","01-705-1281","ADADAS","BASE","Baseline Value",null,14,null,"Y","Y","Y",74,21.3,11.74,18,3,57,null,null,null,null,null],[663,2,81,"Xanomeline High Dose",0,"Baseline","","01-705-1280","ADADAS","BASE","Baseline Value",null,5,null,"Y","Y","Y",74,21.3,11.74,18,3,57,null,null,null,null,null],[664,2,81,"Xanomeline High Dose",0,"Baseline","","01-704-1093","ADADAS","BASE","Baseline Value",null,17,null,"Y","Y","Y",74,21.3,11.74,18,3,57,null,null,null,null,null],[665,2,81,"Xanomeline High Dose",0,"Baseline","","01-704-1074","ADADAS","BASE","Baseline Value",null,26,null,"Y","Y","Y",74,21.3,11.74,18,3,57,null,null,null,null,null],[666,2,81,"Xanomeline High Dose",0,"Baseline","","01-704-1008","ADADAS","BASE","Baseline Value",null,15,null,"Y","Y","Y",74,21.3,11.74,18,3,57,null,null,null,null,null],[667,2,81,"Xanomeline High Dose",0,"Baseline","","01-703-1335","ADADAS","BASE","Baseline Value",null,57,null,"Y","Y","Y",74,21.3,11.74,18,3,57,null,null,null,null,null],[668,2,81,"Xanomeline High Dose",0,"Baseline","","01-703-1258","ADADAS","BASE","Baseline Value",null,49,null,"Y","Y","Y",74,21.3,11.74,18,3,57,null,null,null,null,null],[669,2,81,"Xanomeline High Dose",0,"Baseline","","01-704-1332","ADADAS","BASE","Baseline Value",null,14,null,"Y","Y","Y",74,21.3,11.74,18,3,57,null,null,null,null,null],[670,2,81,"Xanomeline High Dose",0,"Baseline","","01-701-1444","ADADAS","BASE","Baseline Value",null,6,null,"Y","Y","Y",74,21.3,11.74,18,3,57,null,null,null,null,null],[671,2,81,"Xanomeline High Dose",0,"Baseline","","01-701-1383","ADADAS","BASE","Baseline Value",null,11,null,"Y","Y","Y",74,21.3,11.74,18,3,57,null,null,null,null,null],[672,2,81,"Xanomeline High Dose",0,"Baseline","","01-701-1360","ADADAS","BASE","Baseline Value",null,12,null,"Y","Y","Y",74,21.3,11.74,18,3,57,null,null,null,null,null],[673,2,81,"Xanomeline High Dose",0,"Baseline","","01-701-1287","ADADAS","BASE","Baseline Value",null,9,null,"Y","Y","Y",74,21.3,11.74,18,3,57,null,null,null,null,null],[674,2,81,"Xanomeline High Dose",0,"Baseline","","01-701-1275","ADADAS","BASE","Baseline Value",null,12,null,"Y","Y","Y",74,21.3,11.74,18,3,57,null,null,null,null,null],[675,2,81,"Xanomeline High Dose",0,"Baseline","","01-701-1239","ADADAS","BASE","Baseline Value",null,9,null,"Y","Y","Y",74,21.3,11.74,18,3,57,null,null,null,null,null],[676,2,81,"Xanomeline High Dose",0,"Baseline","","01-701-1180","ADADAS","BASE","Baseline Value",null,30,null,"Y","Y","Y",74,21.3,11.74,18,3,57,null,null,null,null,null],[677,2,81,"Xanomeline High Dose",0,"Baseline","","01-704-1241","ADADAS","BASE","Baseline Value",null,17,null,"Y","Y","Y",74,21.3,11.74,18,3,57,null,null,null,null,null],[678,2,81,"Xanomeline High Dose",0,"Baseline","","01-701-1148","ADADAS","BASE","Baseline Value",null,5,null,"Y","Y","Y",74,21.3,11.74,18,3,57,null,null,null,null,null],[679,2,81,"Xanomeline High Dose",0,"Baseline","","01-701-1146","ADADAS","BASE","Baseline Value",null,11,null,"Y","Y","Y",74,21.3,11.74,18,3,57,null,null,null,null,null],[680,2,81,"Xanomeline High Dose",0,"Baseline","","01-701-1034","ADADAS","BASE","Baseline Value",null,11,null,"Y","Y","Y",74,21.3,11.74,18,3,57,null,null,null,null,null],[681,2,81,"Xanomeline High Dose",0,"Baseline","","01-705-1303","ADADAS","BASE","Baseline Value",null,14,null,"Y","Y","Y",74,21.3,11.74,18,3,57,null,null,null,null,null],[682,2,81,"Xanomeline High Dose",0,"Baseline","","01-701-1028","ADADAS","BASE","Baseline Value",null,3,null,"Y","Y","Y",74,21.3,11.74,18,3,57,null,null,null,null,null],[683,2,81,"Xanomeline High Dose",0,"Baseline","","01-708-1178","ADADAS","BASE","Baseline Value",null,47,null,"Y","Y","Y",74,21.3,11.74,18,3,57,null,null,null,null,null],[684,2,81,"Xanomeline High Dose",0,"Baseline","","01-701-1133","ADADAS","BASE","Baseline Value",null,13,null,"Y","Y","Y",74,21.3,11.74,18,3,57,null,null,null,null,null],[685,2,81,"Xanomeline High Dose",0,"Baseline","","01-716-1189","ADADAS","BASE","Baseline Value",null,16,null,"Y","Y","Y",74,21.3,11.74,18,3,57,null,null,null,null,null],[686,2,81,"Xanomeline High Dose",0,"Baseline","","01-704-1266","ADADAS","BASE","Baseline Value",null,18,null,"Y","Y","Y",74,21.3,11.74,18,3,57,null,null,null,null,null],[687,2,81,"Xanomeline High Dose",0,"Baseline","","01-705-1310","ADADAS","BASE","Baseline Value",null,27,null,"Y","Y","Y",74,21.3,11.74,18,3,57,null,null,null,null,null],[688,2,81,"Xanomeline High Dose",0,"Baseline","","01-704-1065","ADADAS","BASE","Baseline Value",null,21,null,"Y","Y","Y",74,21.3,11.74,18,3,57,null,null,null,null,null],[689,2,81,"Xanomeline High Dose",0,"Baseline","","01-701-1181","ADADAS","BASE","Baseline Value",null,32,null,"Y","Y","Y",74,21.3,11.74,18,3,57,null,null,null,null,null],[690,2,81,"Xanomeline High Dose",0,"Baseline","","01-704-1017","ADADAS","BASE","Baseline Value",null,27,null,"Y","Y","Y",74,21.3,11.74,18,3,57,null,null,null,null,null],[691,2,81,"Xanomeline High Dose",0,"Baseline","","01-703-1439","ADADAS","BASE","Baseline Value",null,25,null,"Y","Y","Y",74,21.3,11.74,18,3,57,null,null,null,null,null],[692,2,81,"Xanomeline High Dose",0,"Baseline","","01-703-1295","ADADAS","BASE","Baseline Value",null,19,null,"Y","Y","Y",74,21.3,11.74,18,3,57,null,null,null,null,null],[693,2,81,"Xanomeline High Dose",0,"Baseline","","01-708-1336","ADADAS","BASE","Baseline Value",null,30,null,"Y","Y","Y",74,21.3,11.74,18,3,57,null,null,null,null,null],[694,2,81,"Xanomeline High Dose",0,"Baseline","","01-717-1174","ADADAS","BASE","Baseline Value",null,17,null,"Y","Y","Y",74,21.3,11.74,18,3,57,null,null,null,null,null],[695,2,81,"Xanomeline High Dose",0,"Baseline","","01-716-1447","ADADAS","BASE","Baseline Value",null,22,null,"Y","Y","Y",74,21.3,11.74,18,3,57,null,null,null,null,null],[696,2,81,"Xanomeline High Dose",0,"Baseline","","01-709-1099","ADADAS","BASE","Baseline Value",null,25,null,"Y","Y","Y",74,21.3,11.74,18,3,57,null,null,null,null,null],[697,2,81,"Xanomeline High Dose",0,"Baseline","","01-716-1418","ADADAS","BASE","Baseline Value",null,13,null,"Y","Y","Y",74,21.3,11.74,18,3,57,null,null,null,null,null],[698,2,81,"Xanomeline High Dose",0,"Baseline","","01-709-1329","ADADAS","BASE","Baseline Value",null,51,null,"Y","Y","Y",74,21.3,11.74,18,3,57,null,null,null,null,null],[699,2,81,"Xanomeline High Dose",0,"Baseline","","01-713-1106","ADADAS","BASE","Baseline Value",null,17,null,"Y","Y","Y",74,21.3,11.74,18,3,57,null,null,null,null,null],[700,2,81,"Xanomeline High Dose",0,"Baseline","","01-714-1425","ADADAS","BASE","Baseline Value",null,17,null,"Y","Y","Y",74,21.3,11.74,18,3,57,null,null,null,null,null],[701,2,81,"Xanomeline High Dose",0,"Baseline","","01-710-1354","ADADAS","BASE","Baseline Value",null,17,null,"Y","Y","Y",74,21.3,11.74,18,3,57,null,null,null,null,null],[702,2,81,"Xanomeline High Dose",0,"Baseline","","01-701-1302","ADADAS","BASE","Baseline Value",null,7,null,"Y","Y","Y",74,21.3,11.74,18,3,57,null,null,null,null,null],[703,3,0,"Placebo",24,"Week 24","","01-718-1355","ADADAS","AVAL","Analysis Value",32,null,null,"Y","","Y",79,26.8,13.78,24,5,62,null,null,null,null,null],[704,3,0,"Placebo",24,"Week 24","","01-718-1172","ADADAS","AVAL","Analysis Value",50,null,null,"Y","","Y",79,26.8,13.78,24,5,62,null,null,null,null,null],[705,3,0,"Placebo",24,"Week 24","","01-718-1150","ADADAS","AVAL","Analysis Value",20,null,null,"Y","","Y",79,26.8,13.78,24,5,62,null,null,null,null,null],[706,3,0,"Placebo",24,"Week 24","","01-718-1139","ADADAS","AVAL","Analysis Value",30,null,null,"Y","","Y",79,26.8,13.78,24,5,62,null,null,null,null,null],[707,3,0,"Placebo",24,"Week 24","","01-716-1441","ADADAS","AVAL","Analysis Value",20,null,null,"Y","","Y",79,26.8,13.78,24,5,62,null,null,null,null,null],[708,3,0,"Placebo",24,"Week 24","","01-716-1177","ADADAS","AVAL","Analysis Value",5,null,null,"Y","","Y",79,26.8,13.78,24,5,62,null,null,null,null,null],[709,3,0,"Placebo",24,"Week 24","","01-716-1108","ADADAS","AVAL","Analysis Value",13,null,null,"Y","","Y",79,26.8,13.78,24,5,62,null,null,null,null,null],[710,3,0,"Placebo",24,"Week 24","","01-715-1207","ADADAS","AVAL","Analysis Value",21,null,null,"Y","","Y",79,26.8,13.78,24,5,62,null,null,null,null,null],[711,3,0,"Placebo",24,"Week 24","","01-715-1397","ADADAS","AVAL","Analysis Value",24,null,null,"Y","","Y",79,26.8,13.78,24,5,62,null,null,null,null,null],[712,3,0,"Placebo",24,"Week 24","","01-716-1024","ADADAS","AVAL","Analysis Value",16,null,null,"Y","","Y",79,26.8,13.78,24,5,62,null,null,null,null,null],[713,3,0,"Placebo",24,"Week 24","","01-714-1035","ADADAS","AVAL","Analysis Value",18,null,null,"Y","","Y",79,26.8,13.78,24,5,62,null,null,null,null,null],[714,3,0,"Placebo",24,"Week 24","","01-713-1269","ADADAS","AVAL","Analysis Value",14,null,null,"Y","","Y",79,26.8,13.78,24,5,62,null,null,null,null,null],[715,3,0,"Placebo",24,"Week 24","","01-711-1036","ADADAS","AVAL","Analysis Value",24,null,null,"Y","","Y",79,26.8,13.78,24,5,62,null,null,null,null,null],[716,3,0,"Placebo",24,"Week 24","","01-713-1179","ADADAS","AVAL","Analysis Value",14,null,null,"Y","","Y",79,26.8,13.78,24,5,62,null,null,null,null,null],[717,3,0,"Placebo",24,"Week 24","","01-710-1368","ADADAS","AVAL","Analysis Value",46,null,null,"Y","","Y",79,26.8,13.78,24,5,62,null,null,null,null,null],[718,3,0,"Placebo",24,"Week 24","","01-710-1315","ADADAS","AVAL","Analysis Value",31,null,null,"Y","","Y",79,26.8,13.78,24,5,62,null,null,null,null,null],[719,3,0,"Placebo",24,"Week 24","","01-713-1256","ADADAS","AVAL","Analysis Value",57,null,null,"Y","","Y",79,26.8,13.78,24,5,62,null,null,null,null,null],[720,3,0,"Placebo",24,"Week 24","","01-710-1264","ADADAS","AVAL","Analysis Value",35,null,null,"Y","","Y",79,26.8,13.78,24,5,62,null,null,null,null,null],[721,3,0,"Placebo",24,"Week 24","","01-714-1375","ADADAS","AVAL","Analysis Value",31,null,null,"Y","","Y",79,26.8,13.78,24,5,62,null,null,null,null,null],[722,3,0,"Placebo",24,"Week 24","","01-710-1183","ADADAS","AVAL","Analysis Value",13,null,null,"Y","","Y",79,26.8,13.78,24,5,62,null,null,null,null,null],[723,3,0,"Placebo",24,"Week 24","","01-710-1078","ADADAS","AVAL","Analysis Value",31,null,null,"Y","","Y",79,26.8,13.78,24,5,62,null,null,null,null,null],[724,3,0,"Placebo",24,"Week 24","","01-710-1077","ADADAS","AVAL","Analysis Value",23,null,null,"Y","","Y",79,26.8,13.78,24,5,62,null,null,null,null,null],[725,3,0,"Placebo",24,"Week 24","","01-716-1026","ADADAS","AVAL","Analysis Value",52,null,null,"Y","","Y",79,26.8,13.78,24,5,62,null,null,null,null,null],[726,3,0,"Placebo",24,"Week 24","","01-710-1060","ADADAS","AVAL","Analysis Value",14,null,null,"Y","","Y",79,26.8,13.78,24,5,62,null,null,null,null,null],[727,3,0,"Placebo",24,"Week 24","","01-716-1044","ADADAS","AVAL","Analysis Value",30,null,null,"Y","","Y",79,26.8,13.78,24,5,62,null,null,null,null,null],[728,3,0,"Placebo",24,"Week 24","","01-710-1027","ADADAS","AVAL","Analysis Value",19,null,null,"Y","","Y",79,26.8,13.78,24,5,62,null,null,null,null,null],[729,3,0,"Placebo",24,"Week 24","","01-709-1339","ADADAS","AVAL","Analysis Value",17,null,null,"Y","","Y",79,26.8,13.78,24,5,62,null,null,null,null,null],[730,3,0,"Placebo",24,"Week 24","","01-709-1312","ADADAS","AVAL","Analysis Value",23,null,null,"Y","","Y",79,26.8,13.78,24,5,62,null,null,null,null,null],[731,3,0,"Placebo",24,"Week 24","","01-716-1160","ADADAS","AVAL","Analysis Value",16,null,null,"Y","","Y",79,26.8,13.78,24,5,62,null,null,null,null,null],[732,3,0,"Placebo",24,"Week 24","","01-709-1306","ADADAS","AVAL","Analysis Value",33,null,null,"Y","","Y",79,26.8,13.78,24,5,62,null,null,null,null,null],[733,3,0,"Placebo",24,"Week 24","","01-709-1301","ADADAS","AVAL","Analysis Value",58,null,null,"Y","","Y",79,26.8,13.78,24,5,62,null,null,null,null,null],[734,3,0,"Placebo",24,"Week 24","","01-716-1308","ADADAS","AVAL","Analysis Value",53,null,null,"Y","","Y",79,26.8,13.78,24,5,62,null,null,null,null,null],[735,3,0,"Placebo",24,"Week 24","","01-709-1259","ADADAS","AVAL","Analysis Value",23,null,null,"Y","","Y",79,26.8,13.78,24,5,62,null,null,null,null,null],[736,3,0,"Placebo",24,"Week 24","","01-709-1088","ADADAS","AVAL","Analysis Value",21,null,null,"Y","","Y",79,26.8,13.78,24,5,62,null,null,null,null,null],[737,3,0,"Placebo",24,"Week 24","","01-717-1344","ADADAS","AVAL","Analysis Value",24,null,null,"Y","","Y",79,26.8,13.78,24,5,62,null,null,null,null,null],[738,3,0,"Placebo",24,"Week 24","","01-709-1001","ADADAS","AVAL","Analysis Value",33.7931034483,null,null,"Y","","Y",79,26.8,13.78,24,5,62,null,null,null,null,null],[739,3,0,"Placebo",24,"Week 24","","01-717-1201","ADADAS","AVAL","Analysis Value",24,null,null,"Y","","Y",79,26.8,13.78,24,5,62,null,null,null,null,null],[740,3,0,"Placebo",24,"Week 24","","01-708-1378","ADADAS","AVAL","Analysis Value",14,null,null,"Y","","Y",79,26.8,13.78,24,5,62,null,null,null,null,null],[741,3,0,"Placebo",24,"Week 24","","01-708-1342","ADADAS","AVAL","Analysis Value",11,null,null,"Y","","Y",79,26.8,13.78,24,5,62,null,null,null,null,null],[742,3,0,"Placebo",24,"Week 24","","01-708-1316","ADADAS","AVAL","Analysis Value",27,null,null,"Y","","Y",79,26.8,13.78,24,5,62,null,null,null,null,null],[743,3,0,"Placebo",24,"Week 24","","01-708-1296","ADADAS","AVAL","Analysis Value",34,null,null,"Y","","Y",79,26.8,13.78,24,5,62,null,null,null,null,null],[744,3,0,"Placebo",24,"Week 24","","01-708-1286","ADADAS","AVAL","Analysis Value",54.3103448276,null,null,"Y","","Y",79,26.8,13.78,24,5,62,null,null,null,null,null],[745,3,0,"Placebo",24,"Week 24","","01-708-1253","ADADAS","AVAL","Analysis Value",47,null,null,"Y","","Y",79,26.8,13.78,24,5,62,null,null,null,null,null],[746,3,0,"Placebo",24,"Week 24","","01-708-1087","ADADAS","AVAL","Analysis Value",26,null,null,"Y","","Y",79,26.8,13.78,24,5,62,null,null,null,null,null],[747,3,0,"Placebo",24,"Week 24","","01-708-1158","ADADAS","AVAL","Analysis Value",29,null,null,"Y","","Y",79,26.8,13.78,24,5,62,null,null,null,null,null],[748,3,0,"Placebo",24,"Week 24","","01-707-1206","ADADAS","AVAL","Analysis Value",37,null,null,"Y","","Y",79,26.8,13.78,24,5,62,null,null,null,null,null],[749,3,0,"Placebo",24,"Week 24","","01-705-1349","ADADAS","AVAL","Analysis Value",24,null,null,"Y","","Y",79,26.8,13.78,24,5,62,null,null,null,null,null],[750,3,0,"Placebo",24,"Week 24","","01-705-1282","ADADAS","AVAL","Analysis Value",56,null,null,"Y","","Y",79,26.8,13.78,24,5,62,null,null,null,null,null],[751,3,0,"Placebo",24,"Week 24","","01-705-1059","ADADAS","AVAL","Analysis Value",28,null,null,"Y","","Y",79,26.8,13.78,24,5,62,null,null,null,null,null],[752,3,0,"Placebo",24,"Week 24","","01-704-1260","ADADAS","AVAL","Analysis Value",24,null,null,"Y","","Y",79,26.8,13.78,24,5,62,null,null,null,null,null],[753,3,0,"Placebo",24,"Week 24","","01-704-1351","ADADAS","AVAL","Analysis Value",18,null,null,"Y","","Y",79,26.8,13.78,24,5,62,null,null,null,null,null],[754,3,0,"Placebo",24,"Week 24","","01-704-1233","ADADAS","AVAL","Analysis Value",38,null,null,"Y","","Y",79,26.8,13.78,24,5,62,null,null,null,null,null],[755,3,0,"Placebo",24,"Week 24","","01-704-1127","ADADAS","AVAL","Analysis Value",25,null,null,"Y","","Y",79,26.8,13.78,24,5,62,null,null,null,null,null],[756,3,0,"Placebo",24,"Week 24","","01-704-1010","ADADAS","AVAL","Analysis Value",30,null,null,"Y","","Y",79,26.8,13.78,24,5,62,null,null,null,null,null],[757,3,0,"Placebo",24,"Week 24","","01-703-1299","ADADAS","AVAL","Analysis Value",11,null,null,"Y","","Y",79,26.8,13.78,24,5,62,null,null,null,null,null],[758,3,0,"Placebo",24,"Week 24","","01-703-1210","ADADAS","AVAL","Analysis Value",20,null,null,"Y","","Y",79,26.8,13.78,24,5,62,null,null,null,null,null],[759,3,0,"Placebo",24,"Week 24","","01-704-1164","ADADAS","AVAL","Analysis Value",25,null,null,"Y","","Y",79,26.8,13.78,24,5,62,null,null,null,null,null],[760,3,0,"Placebo",24,"Week 24","","01-703-1175","ADADAS","AVAL","Analysis Value",61.5517241379,null,null,"Y","","Y",79,26.8,13.78,24,5,62,null,null,null,null,null],[761,3,0,"Placebo",24,"Week 24","","01-703-1100","ADADAS","AVAL","Analysis Value",23,null,null,"Y","","Y",79,26.8,13.78,24,5,62,null,null,null,null,null],[762,3,0,"Placebo",24,"Week 24","","01-704-1388","ADADAS","AVAL","Analysis Value",19,null,null,"Y","","Y",79,26.8,13.78,24,5,62,null,null,null,null,null],[763,3,0,"Placebo",24,"Week 24","","01-703-1042","ADADAS","AVAL","Analysis Value",9,null,null,"Y","","Y",79,26.8,13.78,24,5,62,null,null,null,null,null],[764,3,0,"Placebo",24,"Week 24","","01-701-1440","ADADAS","AVAL","Analysis Value",26,null,null,"Y","","Y",79,26.8,13.78,24,5,62,null,null,null,null,null],[765,3,0,"Placebo",24,"Week 24","","01-704-1435","ADADAS","AVAL","Analysis Value",21,null,null,"Y","","Y",79,26.8,13.78,24,5,62,null,null,null,null,null],[766,3,0,"Placebo",24,"Week 24","","01-701-1415","ADADAS","AVAL","Analysis Value",32,null,null,"Y","","Y",79,26.8,13.78,24,5,62,null,null,null,null,null],[767,3,0,"Placebo",24,"Week 24","","01-701-1392","ADADAS","AVAL","Analysis Value",17,null,null,"Y","","Y",79,26.8,13.78,24,5,62,null,null,null,null,null],[768,3,0,"Placebo",24,"Week 24","","01-701-1387","ADADAS","AVAL","Analysis Value",59,null,null,"Y","","Y",79,26.8,13.78,24,5,62,null,null,null,null,null],[769,3,0,"Placebo",24,"Week 24","","01-706-1041","ADADAS","AVAL","Analysis Value",35,null,null,"Y","","Y",79,26.8,13.78,24,5,62,null,null,null,null,null],[770,3,0,"Placebo",24,"Week 24","","01-701-1363","ADADAS","AVAL","Analysis Value",18,null,null,"Y","","Y",79,26.8,13.78,24,5,62,null,null,null,null,null],[771,3,0,"Placebo",24,"Week 24","","01-701-1345","ADADAS","AVAL","Analysis Value",19,null,null,"Y","","Y",79,26.8,13.78,24,5,62,null,null,null,null,null],[772,3,0,"Placebo",24,"Week 24","","01-701-1234","ADADAS","AVAL","Analysis Value",6,null,null,"Y","","Y",79,26.8,13.78,24,5,62,null,null,null,null,null],[773,3,0,"Placebo",24,"Week 24","","01-708-1171","ADADAS","AVAL","Analysis Value",30,null,null,"Y","","Y",79,26.8,13.78,24,5,62,null,null,null,null,null],[774,3,0,"Placebo",24,"Week 24","","01-701-1203","ADADAS","AVAL","Analysis Value",16,null,null,"Y","","Y",79,26.8,13.78,24,5,62,null,null,null,null,null],[775,3,0,"Placebo",24,"Week 24","","01-704-1445","ADADAS","AVAL","Analysis Value",15,null,null,"Y","","Y",79,26.8,13.78,24,5,62,null,null,null,null,null],[776,3,0,"Placebo",24,"Week 24","","01-701-1153","ADADAS","AVAL","Analysis Value",52,null,null,"Y","","Y",79,26.8,13.78,24,5,62,null,null,null,null,null],[777,3,0,"Placebo",24,"Week 24","","01-701-1130","ADADAS","AVAL","Analysis Value",14,null,null,"Y","","Y",79,26.8,13.78,24,5,62,null,null,null,null,null],[778,3,0,"Placebo",24,"Week 24","","01-701-1118","ADADAS","AVAL","Analysis Value",15,null,null,"Y","","Y",79,26.8,13.78,24,5,62,null,null,null,null,null],[779,3,0,"Placebo",24,"Week 24","","01-701-1047","ADADAS","AVAL","Analysis Value",19,null,null,"Y","","Y",79,26.8,13.78,24,5,62,null,null,null,null,null],[780,3,0,"Placebo",24,"Week 24","","01-701-1023","ADADAS","AVAL","Analysis Value",12,null,null,"Y","","Y",79,26.8,13.78,24,5,62,null,null,null,null,null],[781,3,0,"Placebo",24,"Week 24","","01-701-1015","ADADAS","AVAL","Analysis Value",8,null,null,"Y","","Y",79,26.8,13.78,24,5,62,null,null,null,null,null],[782,3,54,"Xanomeline Low Dose",24,"Week 24","","01-718-1254","ADADAS","AVAL","Analysis Value",28,null,null,"Y","","Y",81,26.5,13.3,25,6,62,null,null,null,null,null],[783,3,54,"Xanomeline Low Dose",24,"Week 24","","01-718-1250","ADADAS","AVAL","Analysis Value",25,null,null,"Y","","Y",81,26.5,13.3,25,6,62,null,null,null,null,null],[784,3,54,"Xanomeline Low Dose",24,"Week 24","","01-718-1170","ADADAS","AVAL","Analysis Value",25,null,null,"Y","","Y",81,26.5,13.3,25,6,62,null,null,null,null,null],[785,3,54,"Xanomeline Low Dose",24,"Week 24","","01-718-1079","ADADAS","AVAL","Analysis Value",36,null,null,"Y","","Y",81,26.5,13.3,25,6,62,null,null,null,null,null],[786,3,54,"Xanomeline Low Dose",24,"Week 24","","01-718-1066","ADADAS","AVAL","Analysis Value",40,null,null,"Y","","Y",81,26.5,13.3,25,6,62,null,null,null,null,null],[787,3,54,"Xanomeline Low Dose",24,"Week 24","","01-717-1446","ADADAS","AVAL","Analysis Value",24,null,null,"Y","","Y",81,26.5,13.3,25,6,62,null,null,null,null,null],[788,3,54,"Xanomeline Low Dose",24,"Week 24","","01-717-1004","ADADAS","AVAL","Analysis Value",47,null,null,"Y","","Y",81,26.5,13.3,25,6,62,null,null,null,null,null],[789,3,54,"Xanomeline Low Dose",24,"Week 24","","01-716-1298","ADADAS","AVAL","Analysis Value",45,null,null,"Y","","Y",81,26.5,13.3,25,6,62,null,null,null,null,null],[790,3,54,"Xanomeline Low Dose",24,"Week 24","","01-716-1311","ADADAS","AVAL","Analysis Value",52,null,null,"Y","","Y",81,26.5,13.3,25,6,62,null,null,null,null,null],[791,3,54,"Xanomeline Low Dose",24,"Week 24","","01-716-1094","ADADAS","AVAL","Analysis Value",56.724137931,null,null,"Y","","Y",81,26.5,13.3,25,6,62,null,null,null,null,null],[792,3,54,"Xanomeline Low Dose",24,"Week 24","","01-716-1103","ADADAS","AVAL","Analysis Value",18,null,null,"Y","","Y",81,26.5,13.3,25,6,62,null,null,null,null,null],[793,3,54,"Xanomeline Low Dose",24,"Week 24","","01-715-1107","ADADAS","AVAL","Analysis Value",15,null,null,"Y","","Y",81,26.5,13.3,25,6,62,null,null,null,null,null],[794,3,54,"Xanomeline Low Dose",24,"Week 24","","01-715-1085","ADADAS","AVAL","Analysis Value",20,null,null,"Y","","Y",81,26.5,13.3,25,6,62,null,null,null,null,null],[795,3,54,"Xanomeline Low Dose",24,"Week 24","","01-714-1195","ADADAS","AVAL","Analysis Value",23,null,null,"Y","","Y",81,26.5,13.3,25,6,62,null,null,null,null,null],[796,3,54,"Xanomeline Low Dose",24,"Week 24","","01-714-1068","ADADAS","AVAL","Analysis Value",25,null,null,"Y","","Y",81,26.5,13.3,25,6,62,null,null,null,null,null],[797,3,54,"Xanomeline Low Dose",24,"Week 24","","01-713-1448","ADADAS","AVAL","Analysis Value",18,null,null,"Y","","Y",81,26.5,13.3,25,6,62,null,null,null,null,null],[798,3,54,"Xanomeline Low Dose",24,"Week 24","","01-713-1073","ADADAS","AVAL","Analysis Value",32,null,null,"Y","","Y",81,26.5,13.3,25,6,62,null,null,null,null,null],[799,3,54,"Xanomeline Low Dose",24,"Week 24","","01-710-1385","ADADAS","AVAL","Analysis Value",21,null,null,"Y","","Y",81,26.5,13.3,25,6,62,null,null,null,null,null],[800,3,54,"Xanomeline Low Dose",24,"Week 24","","01-710-1300","ADADAS","AVAL","Analysis Value",41,null,null,"Y","","Y",81,26.5,13.3,25,6,62,null,null,null,null,null],[801,3,54,"Xanomeline Low Dose",24,"Week 24","","01-710-1270","ADADAS","AVAL","Analysis Value",40,null,null,"Y","","Y",81,26.5,13.3,25,6,62,null,null,null,null,null],[802,3,54,"Xanomeline Low Dose",24,"Week 24","","01-710-1358","ADADAS","AVAL","Analysis Value",36,null,null,"Y","","Y",81,26.5,13.3,25,6,62,null,null,null,null,null],[803,3,54,"Xanomeline Low Dose",24,"Week 24","","01-710-1235","ADADAS","AVAL","Analysis Value",10,null,null,"Y","","Y",81,26.5,13.3,25,6,62,null,null,null,null,null],[804,3,54,"Xanomeline Low Dose",24,"Week 24","","01-710-1166","ADADAS","AVAL","Analysis Value",22,null,null,"Y","","Y",81,26.5,13.3,25,6,62,null,null,null,null,null],[805,3,54,"Xanomeline Low Dose",24,"Week 24","","01-713-1043","ADADAS","AVAL","Analysis Value",32,null,null,"Y","","Y",81,26.5,13.3,25,6,62,null,null,null,null,null],[806,3,54,"Xanomeline Low Dose",24,"Week 24","","01-710-1154","ADADAS","AVAL","Analysis Value",50,null,null,"Y","","Y",81,26.5,13.3,25,6,62,null,null,null,null,null],[807,3,54,"Xanomeline Low Dose",24,"Week 24","","01-711-1143","ADADAS","AVAL","Analysis Value",9,null,null,"Y","","Y",81,26.5,13.3,25,6,62,null,null,null,null,null],[808,3,54,"Xanomeline Low Dose",24,"Week 24","","01-710-1053","ADADAS","AVAL","Analysis Value",22,null,null,"Y","","Y",81,26.5,13.3,25,6,62,null,null,null,null,null],[809,3,54,"Xanomeline Low Dose",24,"Week 24","","01-710-1045","ADADAS","AVAL","Analysis Value",39,null,null,"Y","","Y",81,26.5,13.3,25,6,62,null,null,null,null,null],[810,3,54,"Xanomeline Low Dose",24,"Week 24","","01-710-1002","ADADAS","AVAL","Analysis Value",20,null,null,"Y","","Y",81,26.5,13.3,25,6,62,null,null,null,null,null],[811,3,54,"Xanomeline Low Dose",24,"Week 24","","01-709-1326","ADADAS","AVAL","Analysis Value",45.8620689655,null,null,"Y","","Y",81,26.5,13.3,25,6,62,null,null,null,null,null],[812,3,54,"Xanomeline Low Dose",24,"Week 24","","01-709-1285","ADADAS","AVAL","Analysis Value",25,null,null,"Y","","Y",81,26.5,13.3,25,6,62,null,null,null,null,null],[813,3,54,"Xanomeline Low Dose",24,"Week 24","","01-709-1217","ADADAS","AVAL","Analysis Value",30,null,null,"Y","","Y",81,26.5,13.3,25,6,62,null,null,null,null,null],[814,3,54,"Xanomeline Low Dose",24,"Week 24","","01-709-1102","ADADAS","AVAL","Analysis Value",43.4482758621,null,null,"Y","","Y",81,26.5,13.3,25,6,62,null,null,null,null,null],[815,3,54,"Xanomeline Low Dose",24,"Week 24","","01-716-1151","ADADAS","AVAL","Analysis Value",31,null,null,"Y","","Y",81,26.5,13.3,25,6,62,null,null,null,null,null],[816,3,54,"Xanomeline Low Dose",24,"Week 24","","01-709-1081","ADADAS","AVAL","Analysis Value",24,null,null,"Y","","Y",81,26.5,13.3,25,6,62,null,null,null,null,null],[817,3,54,"Xanomeline Low Dose",24,"Week 24","","01-716-1157","ADADAS","AVAL","Analysis Value",22,null,null,"Y","","Y",81,26.5,13.3,25,6,62,null,null,null,null,null],[818,3,54,"Xanomeline Low Dose",24,"Week 24","","01-709-1020","ADADAS","AVAL","Analysis Value",15,null,null,"Y","","Y",81,26.5,13.3,25,6,62,null,null,null,null,null],[819,3,54,"Xanomeline Low Dose",24,"Week 24","","01-708-1428","ADADAS","AVAL","Analysis Value",20,null,null,"Y","","Y",81,26.5,13.3,25,6,62,null,null,null,null,null],[820,3,54,"Xanomeline Low Dose",24,"Week 24","","01-708-1353","ADADAS","AVAL","Analysis Value",28,null,null,"Y","","Y",81,26.5,13.3,25,6,62,null,null,null,null,null],[821,3,54,"Xanomeline Low Dose",24,"Week 24","","01-708-1348","ADADAS","AVAL","Analysis Value",37,null,null,"Y","","Y",81,26.5,13.3,25,6,62,null,null,null,null,null],[822,3,54,"Xanomeline Low Dose",24,"Week 24","","01-716-1063","ADADAS","AVAL","Analysis Value",42,null,null,"Y","","Y",81,26.5,13.3,25,6,62,null,null,null,null,null],[823,3,54,"Xanomeline Low Dose",24,"Week 24","","01-716-1167","ADADAS","AVAL","Analysis Value",27,null,null,"Y","","Y",81,26.5,13.3,25,6,62,null,null,null,null,null],[824,3,54,"Xanomeline Low Dose",24,"Week 24","","01-708-1297","ADADAS","AVAL","Analysis Value",25,null,null,"Y","","Y",81,26.5,13.3,25,6,62,null,null,null,null,null],[825,3,54,"Xanomeline Low Dose",24,"Week 24","","01-708-1272","ADADAS","AVAL","Analysis Value",25,null,null,"Y","","Y",81,26.5,13.3,25,6,62,null,null,null,null,null],[826,3,54,"Xanomeline Low Dose",24,"Week 24","","01-708-1084","ADADAS","AVAL","Analysis Value",24,null,null,"Y","","Y",81,26.5,13.3,25,6,62,null,null,null,null,null],[827,3,54,"Xanomeline Low Dose",24,"Week 24","","01-708-1032","ADADAS","AVAL","Analysis Value",11,null,null,"Y","","Y",81,26.5,13.3,25,6,62,null,null,null,null,null],[828,3,54,"Xanomeline Low Dose",24,"Week 24","","01-707-1037","ADADAS","AVAL","Analysis Value",20,null,null,"Y","","Y",81,26.5,13.3,25,6,62,null,null,null,null,null],[829,3,54,"Xanomeline Low Dose",24,"Week 24","","01-705-1393","ADADAS","AVAL","Analysis Value",29,null,null,"Y","","Y",81,26.5,13.3,25,6,62,null,null,null,null,null],[830,3,54,"Xanomeline Low Dose",24,"Week 24","","01-705-1292","ADADAS","AVAL","Analysis Value",10,null,null,"Y","","Y",81,26.5,13.3,25,6,62,null,null,null,null,null],[831,3,54,"Xanomeline Low Dose",24,"Week 24","","01-704-1218","ADADAS","AVAL","Analysis Value",24,null,null,"Y","","Y",81,26.5,13.3,25,6,62,null,null,null,null,null],[832,3,54,"Xanomeline Low Dose",24,"Week 24","","01-704-1135","ADADAS","AVAL","Analysis Value",20,null,null,"Y","","Y",81,26.5,13.3,25,6,62,null,null,null,null,null],[833,3,54,"Xanomeline Low Dose",24,"Week 24","","01-704-1025","ADADAS","AVAL","Analysis Value",25,null,null,"Y","","Y",81,26.5,13.3,25,6,62,null,null,null,null,null],[834,3,54,"Xanomeline Low Dose",24,"Week 24","","01-703-1197","ADADAS","AVAL","Analysis Value",42,null,null,"Y","","Y",81,26.5,13.3,25,6,62,null,null,null,null,null],[835,3,54,"Xanomeline Low Dose",24,"Week 24","","01-703-1379","ADADAS","AVAL","Analysis Value",40,null,null,"Y","","Y",81,26.5,13.3,25,6,62,null,null,null,null,null],[836,3,54,"Xanomeline Low Dose",24,"Week 24","","01-703-1182","ADADAS","AVAL","Analysis Value",14,null,null,"Y","","Y",81,26.5,13.3,25,6,62,null,null,null,null,null],[837,3,54,"Xanomeline Low Dose",24,"Week 24","","01-705-1199","ADADAS","AVAL","Analysis Value",8,null,null,"Y","","Y",81,26.5,13.3,25,6,62,null,null,null,null,null],[838,3,54,"Xanomeline Low Dose",24,"Week 24","","01-703-1086","ADADAS","AVAL","Analysis Value",39,null,null,"Y","","Y",81,26.5,13.3,25,6,62,null,null,null,null,null],[839,3,54,"Xanomeline Low Dose",24,"Week 24","","01-702-1082","ADADAS","AVAL","Analysis Value",8,null,null,"Y","","Y",81,26.5,13.3,25,6,62,null,null,null,null,null],[840,3,54,"Xanomeline Low Dose",24,"Week 24","","01-701-1442","ADADAS","AVAL","Analysis Value",20,null,null,"Y","","Y",81,26.5,13.3,25,6,62,null,null,null,null,null],[841,3,54,"Xanomeline Low Dose",24,"Week 24","","01-701-1429","ADADAS","AVAL","Analysis Value",34,null,null,"Y","","Y",81,26.5,13.3,25,6,62,null,null,null,null,null],[842,3,54,"Xanomeline Low Dose",24,"Week 24","","01-704-1009","ADADAS","AVAL","Analysis Value",26,null,null,"Y","","Y",81,26.5,13.3,25,6,62,null,null,null,null,null],[843,3,54,"Xanomeline Low Dose",24,"Week 24","","01-701-1341","ADADAS","AVAL","Analysis Value",6,null,null,"Y","","Y",81,26.5,13.3,25,6,62,null,null,null,null,null],[844,3,54,"Xanomeline Low Dose",24,"Week 24","","01-704-1114","ADADAS","AVAL","Analysis Value",20,null,null,"Y","","Y",81,26.5,13.3,25,6,62,null,null,null,null,null],[845,3,54,"Xanomeline Low Dose",24,"Week 24","","01-701-1324","ADADAS","AVAL","Analysis Value",11,null,null,"Y","","Y",81,26.5,13.3,25,6,62,null,null,null,null,null],[846,3,54,"Xanomeline Low Dose",24,"Week 24","","01-701-1317","ADADAS","AVAL","Analysis Value",18,null,null,"Y","","Y",81,26.5,13.3,25,6,62,null,null,null,null,null],[847,3,54,"Xanomeline Low Dose",24,"Week 24","","01-701-1294","ADADAS","AVAL","Analysis Value",9,null,null,"Y","","Y",81,26.5,13.3,25,6,62,null,null,null,null,null],[848,3,54,"Xanomeline Low Dose",24,"Week 24","","01-704-1120","ADADAS","AVAL","Analysis Value",25,null,null,"Y","","Y",81,26.5,13.3,25,6,62,null,null,null,null,null],[849,3,54,"Xanomeline Low Dose",24,"Week 24","","01-701-1211","ADADAS","AVAL","Analysis Value",62,null,null,"Y","","Y",81,26.5,13.3,25,6,62,null,null,null,null,null],[850,3,54,"Xanomeline Low Dose",24,"Week 24","","01-704-1325","ADADAS","AVAL","Analysis Value",32,null,null,"Y","","Y",81,26.5,13.3,25,6,62,null,null,null,null,null],[851,3,54,"Xanomeline Low Dose",24,"Week 24","","01-701-1192","ADADAS","AVAL","Analysis Value",12,null,null,"Y","","Y",81,26.5,13.3,25,6,62,null,null,null,null,null],[852,3,54,"Xanomeline Low Dose",24,"Week 24","","01-701-1188","ADADAS","AVAL","Analysis Value",7,null,null,"Y","","Y",81,26.5,13.3,25,6,62,null,null,null,null,null],[853,3,54,"Xanomeline Low Dose",24,"Week 24","","01-701-1115","ADADAS","AVAL","Analysis Value",10,null,null,"Y","","Y",81,26.5,13.3,25,6,62,null,null,null,null,null],[854,3,54,"Xanomeline Low Dose",24,"Week 24","","01-715-1405","ADADAS","AVAL","Analysis Value",51,null,null,"Y","","Y",81,26.5,13.3,25,6,62,null,null,null,null,null],[855,3,54,"Xanomeline Low Dose",24,"Week 24","","01-701-1111","ADADAS","AVAL","Analysis Value",9,null,null,"Y","","Y",81,26.5,13.3,25,6,62,null,null,null,null,null],[856,3,54,"Xanomeline Low Dose",24,"Week 24","","01-705-1431","ADADAS","AVAL","Analysis Value",11,null,null,"Y","","Y",81,26.5,13.3,25,6,62,null,null,null,null,null],[857,3,54,"Xanomeline Low Dose",24,"Week 24","","01-701-1097","ADADAS","AVAL","Analysis Value",51,null,null,"Y","","Y",81,26.5,13.3,25,6,62,null,null,null,null,null],[858,3,54,"Xanomeline Low Dose",24,"Week 24","","01-701-1033","ADADAS","AVAL","Analysis Value",7,null,null,"Y","","Y",81,26.5,13.3,25,6,62,null,null,null,null,null],[859,3,54,"Xanomeline Low Dose",24,"Week 24","","01-703-1119","ADADAS","AVAL","Analysis Value",26,null,null,"Y","","Y",81,26.5,13.3,25,6,62,null,null,null,null,null],[860,3,54,"Xanomeline Low Dose",24,"Week 24","","01-705-1031","ADADAS","AVAL","Analysis Value",8,null,null,"Y","","Y",81,26.5,13.3,25,6,62,null,null,null,null,null],[861,3,54,"Xanomeline Low Dose",24,"Week 24","","01-706-1384","ADADAS","AVAL","Analysis Value",23,null,null,"Y","","Y",81,26.5,13.3,25,6,62,null,null,null,null,null],[862,3,54,"Xanomeline Low Dose",24,"Week 24","","01-708-1019","ADADAS","AVAL","Analysis Value",39,null,null,"Y","","Y",81,26.5,13.3,25,6,62,null,null,null,null,null],[863,3,81,"Xanomeline High Dose",24,"Week 24","","01-718-1427","ADADAS","AVAL","Analysis Value",22,null,null,"Y","","Y",74,22.7,12.54,20,3,62,null,null,null,null,null],[864,3,81,"Xanomeline High Dose",24,"Week 24","","01-718-1328","ADADAS","AVAL","Analysis Value",45,null,null,"Y","","Y",74,22.7,12.54,20,3,62,null,null,null,null,null],[865,3,81,"Xanomeline High Dose",24,"Week 24","","01-717-1357","ADADAS","AVAL","Analysis Value",42,null,null,"Y","","Y",74,22.7,12.54,20,3,62,null,null,null,null,null],[866,3,81,"Xanomeline High Dose",24,"Week 24","","01-717-1174","ADADAS","AVAL","Analysis Value",15,null,null,"Y","","Y",74,22.7,12.54,20,3,62,null,null,null,null,null],[867,3,81,"Xanomeline High Dose",24,"Week 24","","01-716-1447","ADADAS","AVAL","Analysis Value",16,null,null,"Y","","Y",74,22.7,12.54,20,3,62,null,null,null,null,null],[868,3,81,"Xanomeline High Dose",24,"Week 24","","01-716-1418","ADADAS","AVAL","Analysis Value",18,null,null,"Y","","Y",74,22.7,12.54,20,3,62,null,null,null,null,null],[869,3,81,"Xanomeline High Dose",24,"Week 24","","01-716-1373","ADADAS","AVAL","Analysis Value",17,null,null,"Y","","Y",74,22.7,12.54,20,3,62,null,null,null,null,null],[870,3,81,"Xanomeline High Dose",24,"Week 24","","01-716-1189","ADADAS","AVAL","Analysis Value",23,null,null,"Y","","Y",74,22.7,12.54,20,3,62,null,null,null,null,null],[871,3,81,"Xanomeline High Dose",24,"Week 24","","01-716-1030","ADADAS","AVAL","Analysis Value",21,null,null,"Y","","Y",74,22.7,12.54,20,3,62,null,null,null,null,null],[872,3,81,"Xanomeline High Dose",24,"Week 24","","01-715-1319","ADADAS","AVAL","Analysis Value",31,null,null,"Y","","Y",74,22.7,12.54,20,3,62,null,null,null,null,null],[873,3,81,"Xanomeline High Dose",24,"Week 24","","01-714-1288","ADADAS","AVAL","Analysis Value",21,null,null,"Y","","Y",74,22.7,12.54,20,3,62,null,null,null,null,null],[874,3,81,"Xanomeline High Dose",24,"Week 24","","01-713-1209","ADADAS","AVAL","Analysis Value",18,null,null,"Y","","Y",74,22.7,12.54,20,3,62,null,null,null,null,null],[875,3,81,"Xanomeline High Dose",24,"Week 24","","01-713-1106","ADADAS","AVAL","Analysis Value",16,null,null,"Y","","Y",74,22.7,12.54,20,3,62,null,null,null,null,null],[876,3,81,"Xanomeline High Dose",24,"Week 24","","01-710-1408","ADADAS","AVAL","Analysis Value",8,null,null,"Y","","Y",74,22.7,12.54,20,3,62,null,null,null,null,null],[877,3,81,"Xanomeline High Dose",24,"Week 24","","01-710-1354","ADADAS","AVAL","Analysis Value",18,null,null,"Y","","Y",74,22.7,12.54,20,3,62,null,null,null,null,null],[878,3,81,"Xanomeline High Dose",24,"Week 24","","01-716-1071","ADADAS","AVAL","Analysis Value",12,null,null,"Y","","Y",74,22.7,12.54,20,3,62,null,null,null,null,null],[879,3,81,"Xanomeline High Dose",24,"Week 24","","01-710-1278","ADADAS","AVAL","Analysis Value",29,null,null,"Y","","Y",74,22.7,12.54,20,3,62,null,null,null,null,null],[880,3,81,"Xanomeline High Dose",24,"Week 24","","01-710-1187","ADADAS","AVAL","Analysis Value",37,null,null,"Y","","Y",74,22.7,12.54,20,3,62,null,null,null,null,null],[881,3,81,"Xanomeline High Dose",24,"Week 24","","01-710-1142","ADADAS","AVAL","Analysis Value",11,null,null,"Y","","Y",74,22.7,12.54,20,3,62,null,null,null,null,null],[882,3,81,"Xanomeline High Dose",24,"Week 24","","01-710-1070","ADADAS","AVAL","Analysis Value",49,null,null,"Y","","Y",74,22.7,12.54,20,3,62,null,null,null,null,null],[883,3,81,"Xanomeline High Dose",24,"Week 24","","01-709-1424","ADADAS","AVAL","Analysis Value",31,null,null,"Y","","Y",74,22.7,12.54,20,3,62,null,null,null,null,null],[884,3,81,"Xanomeline High Dose",24,"Week 24","","01-717-1109","ADADAS","AVAL","Analysis Value",38,null,null,"Y","","Y",74,22.7,12.54,20,3,62,null,null,null,null,null],[885,3,81,"Xanomeline High Dose",24,"Week 24","","01-718-1101","ADADAS","AVAL","Analysis Value",44,null,null,"Y","","Y",74,22.7,12.54,20,3,62,null,null,null,null,null],[886,3,81,"Xanomeline High Dose",24,"Week 24","","01-709-1309","ADADAS","AVAL","Analysis Value",29,null,null,"Y","","Y",74,22.7,12.54,20,3,62,null,null,null,null,null],[887,3,81,"Xanomeline High Dose",24,"Week 24","","01-709-1168","ADADAS","AVAL","Analysis Value",17,null,null,"Y","","Y",74,22.7,12.54,20,3,62,null,null,null,null,null],[888,3,81,"Xanomeline High Dose",24,"Week 24","","01-718-1371","ADADAS","AVAL","Analysis Value",24,null,null,"Y","","Y",74,22.7,12.54,20,3,62,null,null,null,null,null],[889,3,81,"Xanomeline High Dose",24,"Week 24","","01-709-1099","ADADAS","AVAL","Analysis Value",38,null,null,"Y","","Y",74,22.7,12.54,20,3,62,null,null,null,null,null],[890,3,81,"Xanomeline High Dose",24,"Week 24","","01-709-1029","ADADAS","AVAL","Analysis Value",35,null,null,"Y","","Y",74,22.7,12.54,20,3,62,null,null,null,null,null],[891,3,81,"Xanomeline High Dose",24,"Week 24","","01-708-1406","ADADAS","AVAL","Analysis Value",27,null,null,"Y","","Y",74,22.7,12.54,20,3,62,null,null,null,null,null],[892,3,81,"Xanomeline High Dose",24,"Week 24","","01-708-1347","ADADAS","AVAL","Analysis Value",12,null,null,"Y","","Y",74,22.7,12.54,20,3,62,null,null,null,null,null],[893,3,81,"Xanomeline High Dose",24,"Week 24","","01-708-1336","ADADAS","AVAL","Analysis Value",34,null,null,"Y","","Y",74,22.7,12.54,20,3,62,null,null,null,null,null],[894,3,81,"Xanomeline High Dose",24,"Week 24","","01-708-1216","ADADAS","AVAL","Analysis Value",27,null,null,"Y","","Y",74,22.7,12.54,20,3,62,null,null,null,null,null],[895,3,81,"Xanomeline High Dose",24,"Week 24","","01-709-1238","ADADAS","AVAL","Analysis Value",10,null,null,"Y","","Y",74,22.7,12.54,20,3,62,null,null,null,null,null],[896,3,81,"Xanomeline High Dose",24,"Week 24","","01-709-1329","ADADAS","AVAL","Analysis Value",50.6896551724,null,null,"Y","","Y",74,22.7,12.54,20,3,62,null,null,null,null,null],[897,3,81,"Xanomeline High Dose",24,"Week 24","","01-708-1178","ADADAS","AVAL","Analysis Value",44,null,null,"Y","","Y",74,22.7,12.54,20,3,62,null,null,null,null,null],[898,3,81,"Xanomeline High Dose",24,"Week 24","","01-705-1303","ADADAS","AVAL","Analysis Value",17,null,null,"Y","","Y",74,22.7,12.54,20,3,62,null,null,null,null,null],[899,3,81,"Xanomeline High Dose",24,"Week 24","","01-710-1006","ADADAS","AVAL","Analysis Value",31,null,null,"Y","","Y",74,22.7,12.54,20,3,62,null,null,null,null,null],[900,3,81,"Xanomeline High Dose",24,"Week 24","","01-705-1280","ADADAS","AVAL","Analysis Value",4,null,null,"Y","","Y",74,22.7,12.54,20,3,62,null,null,null,null,null],[901,3,81,"Xanomeline High Dose",24,"Week 24","","01-704-1266","ADADAS","AVAL","Analysis Value",24,null,null,"Y","","Y",74,22.7,12.54,20,3,62,null,null,null,null,null],[902,3,81,"Xanomeline High Dose",24,"Week 24","","01-716-1229","ADADAS","AVAL","Analysis Value",16,null,null,"Y","","Y",74,22.7,12.54,20,3,62,null,null,null,null,null],[903,3,81,"Xanomeline High Dose",24,"Week 24","","01-716-1364","ADADAS","AVAL","Analysis Value",23,null,null,"Y","","Y",74,22.7,12.54,20,3,62,null,null,null,null,null],[904,3,81,"Xanomeline High Dose",24,"Week 24","","01-710-1249","ADADAS","AVAL","Analysis Value",21,null,null,"Y","","Y",74,22.7,12.54,20,3,62,null,null,null,null,null],[905,3,81,"Xanomeline High Dose",24,"Week 24","","01-704-1065","ADADAS","AVAL","Analysis Value",35,null,null,"Y","","Y",74,22.7,12.54,20,3,62,null,null,null,null,null],[906,3,81,"Xanomeline High Dose",24,"Week 24","","01-715-1321","ADADAS","AVAL","Analysis Value",9,null,null,"Y","","Y",74,22.7,12.54,20,3,62,null,null,null,null,null],[907,3,81,"Xanomeline High Dose",24,"Week 24","","01-711-1012","ADADAS","AVAL","Analysis Value",23.3333333333,null,null,"Y","","Y",74,22.7,12.54,20,3,62,null,null,null,null,null],[908,3,81,"Xanomeline High Dose",24,"Week 24","","01-704-1074","ADADAS","AVAL","Analysis Value",24,null,null,"Y","","Y",74,22.7,12.54,20,3,62,null,null,null,null,null],[909,3,81,"Xanomeline High Dose",24,"Week 24","","01-703-1439","ADADAS","AVAL","Analysis Value",19,null,null,"Y","","Y",74,22.7,12.54,20,3,62,null,null,null,null,null],[910,3,81,"Xanomeline High Dose",24,"Week 24","","01-703-1335","ADADAS","AVAL","Analysis Value",61.5517241379,null,null,"Y","","Y",74,22.7,12.54,20,3,62,null,null,null,null,null],[911,3,81,"Xanomeline High Dose",24,"Week 24","","01-714-1425","ADADAS","AVAL","Analysis Value",15,null,null,"Y","","Y",74,22.7,12.54,20,3,62,null,null,null,null,null],[912,3,81,"Xanomeline High Dose",24,"Week 24","","01-703-1295","ADADAS","AVAL","Analysis Value",19,null,null,"Y","","Y",74,22.7,12.54,20,3,62,null,null,null,null,null],[913,3,81,"Xanomeline High Dose",24,"Week 24","","01-703-1258","ADADAS","AVAL","Analysis Value",42.2413793103,null,null,"Y","","Y",74,22.7,12.54,20,3,62,null,null,null,null,null],[914,3,81,"Xanomeline High Dose",24,"Week 24","","01-704-1008","ADADAS","AVAL","Analysis Value",21,null,null,"Y","","Y",74,22.7,12.54,20,3,62,null,null,null,null,null],[915,3,81,"Xanomeline High Dose",24,"Week 24","","01-703-1076","ADADAS","AVAL","Analysis Value",11,null,null,"Y","","Y",74,22.7,12.54,20,3,62,null,null,null,null,null],[916,3,81,"Xanomeline High Dose",24,"Week 24","","01-701-1444","ADADAS","AVAL","Analysis Value",9,null,null,"Y","","Y",74,22.7,12.54,20,3,62,null,null,null,null,null],[917,3,81,"Xanomeline High Dose",24,"Week 24","","01-701-1383","ADADAS","AVAL","Analysis Value",9,null,null,"Y","","Y",74,22.7,12.54,20,3,62,null,null,null,null,null],[918,3,81,"Xanomeline High Dose",24,"Week 24","","01-704-1093","ADADAS","AVAL","Analysis Value",18,null,null,"Y","","Y",74,22.7,12.54,20,3,62,null,null,null,null,null],[919,3,81,"Xanomeline High Dose",24,"Week 24","","01-701-1360","ADADAS","AVAL","Analysis Value",11,null,null,"Y","","Y",74,22.7,12.54,20,3,62,null,null,null,null,null],[920,3,81,"Xanomeline High Dose",24,"Week 24","","01-704-1017","ADADAS","AVAL","Analysis Value",30,null,null,"Y","","Y",74,22.7,12.54,20,3,62,null,null,null,null,null],[921,3,81,"Xanomeline High Dose",24,"Week 24","","01-704-1241","ADADAS","AVAL","Analysis Value",19,null,null,"Y","","Y",74,22.7,12.54,20,3,62,null,null,null,null,null],[922,3,81,"Xanomeline High Dose",24,"Week 24","","01-701-1302","ADADAS","AVAL","Analysis Value",6,null,null,"Y","","Y",74,22.7,12.54,20,3,62,null,null,null,null,null],[923,3,81,"Xanomeline High Dose",24,"Week 24","","01-701-1287","ADADAS","AVAL","Analysis Value",7,null,null,"Y","","Y",74,22.7,12.54,20,3,62,null,null,null,null,null],[924,3,81,"Xanomeline High Dose",24,"Week 24","","01-701-1275","ADADAS","AVAL","Analysis Value",14,null,null,"Y","","Y",74,22.7,12.54,20,3,62,null,null,null,null,null],[925,3,81,"Xanomeline High Dose",24,"Week 24","","01-704-1332","ADADAS","AVAL","Analysis Value",12,null,null,"Y","","Y",74,22.7,12.54,20,3,62,null,null,null,null,null],[926,3,81,"Xanomeline High Dose",24,"Week 24","","01-701-1239","ADADAS","AVAL","Analysis Value",5,null,null,"Y","","Y",74,22.7,12.54,20,3,62,null,null,null,null,null],[927,3,81,"Xanomeline High Dose",24,"Week 24","","01-701-1181","ADADAS","AVAL","Analysis Value",38,null,null,"Y","","Y",74,22.7,12.54,20,3,62,null,null,null,null,null],[928,3,81,"Xanomeline High Dose",24,"Week 24","","01-705-1281","ADADAS","AVAL","Analysis Value",17,null,null,"Y","","Y",74,22.7,12.54,20,3,62,null,null,null,null,null],[929,3,81,"Xanomeline High Dose",24,"Week 24","","01-701-1180","ADADAS","AVAL","Analysis Value",31,null,null,"Y","","Y",74,22.7,12.54,20,3,62,null,null,null,null,null],[930,3,81,"Xanomeline High Dose",24,"Week 24","","01-701-1148","ADADAS","AVAL","Analysis Value",7,null,null,"Y","","Y",74,22.7,12.54,20,3,62,null,null,null,null,null],[931,3,81,"Xanomeline High Dose",24,"Week 24","","01-706-1049","ADADAS","AVAL","Analysis Value",31,null,null,"Y","","Y",74,22.7,12.54,20,3,62,null,null,null,null,null],[932,3,81,"Xanomeline High Dose",24,"Week 24","","01-701-1146","ADADAS","AVAL","Analysis Value",10,null,null,"Y","","Y",74,22.7,12.54,20,3,62,null,null,null,null,null],[933,3,81,"Xanomeline High Dose",24,"Week 24","","01-705-1310","ADADAS","AVAL","Analysis Value",29,null,null,"Y","","Y",74,22.7,12.54,20,3,62,null,null,null,null,null],[934,3,81,"Xanomeline High Dose",24,"Week 24","","01-701-1133","ADADAS","AVAL","Analysis Value",18,null,null,"Y","","Y",74,22.7,12.54,20,3,62,null,null,null,null,null],[935,3,81,"Xanomeline High Dose",24,"Week 24","","01-701-1034","ADADAS","AVAL","Analysis Value",11,null,null,"Y","","Y",74,22.7,12.54,20,3,62,null,null,null,null,null],[936,3,81,"Xanomeline High Dose",24,"Week 24","","01-701-1028","ADADAS","AVAL","Analysis Value",3,null,null,"Y","","Y",74,22.7,12.54,20,3,62,null,null,null,null,null],[937,4,0,"Placebo",24,"Week 24","","01-718-1172","ADADAS","CHG","Change from Baseline",null,null,1,"Y","","Y",79,2.6,5.83,2,-11,16,null,null,null,null,null],[938,4,0,"Placebo",24,"Week 24","","01-718-1150","ADADAS","CHG","Change from Baseline",null,null,6,"Y","","Y",79,2.6,5.83,2,-11,16,null,null,null,null,null],[939,4,0,"Placebo",24,"Week 24","","01-718-1139","ADADAS","CHG","Change from Baseline",null,null,-10,"Y","","Y",79,2.6,5.83,2,-11,16,null,null,null,null,null],[940,4,0,"Placebo",24,"Week 24","","01-717-1344","ADADAS","CHG","Change from Baseline",null,null,5,"Y","","Y",79,2.6,5.83,2,-11,16,null,null,null,null,null],[941,4,0,"Placebo",24,"Week 24","","01-717-1201","ADADAS","CHG","Change from Baseline",null,null,3,"Y","","Y",79,2.6,5.83,2,-11,16,null,null,null,null,null],[942,4,0,"Placebo",24,"Week 24","","01-716-1441","ADADAS","CHG","Change from Baseline",null,null,8,"Y","","Y",79,2.6,5.83,2,-11,16,null,null,null,null,null],[943,4,0,"Placebo",24,"Week 24","","01-716-1308","ADADAS","CHG","Change from Baseline",null,null,16,"Y","","Y",79,2.6,5.83,2,-11,16,null,null,null,null,null],[944,4,0,"Placebo",24,"Week 24","","01-716-1160","ADADAS","CHG","Change from Baseline",null,null,1,"Y","","Y",79,2.6,5.83,2,-11,16,null,null,null,null,null],[945,4,0,"Placebo",24,"Week 24","","01-716-1108","ADADAS","CHG","Change from Baseline",null,null,1,"Y","","Y",79,2.6,5.83,2,-11,16,null,null,null,null,null],[946,4,0,"Placebo",24,"Week 24","","01-716-1044","ADADAS","CHG","Change from Baseline",null,null,9,"Y","","Y",79,2.6,5.83,2,-11,16,null,null,null,null,null],[947,4,0,"Placebo",24,"Week 24","","01-716-1024","ADADAS","CHG","Change from Baseline",null,null,1,"Y","","Y",79,2.6,5.83,2,-11,16,null,null,null,null,null],[948,4,0,"Placebo",24,"Week 24","","01-715-1397","ADADAS","CHG","Change from Baseline",null,null,6,"Y","","Y",79,2.6,5.83,2,-11,16,null,null,null,null,null],[949,4,0,"Placebo",24,"Week 24","","01-715-1207","ADADAS","CHG","Change from Baseline",null,null,5,"Y","","Y",79,2.6,5.83,2,-11,16,null,null,null,null,null],[950,4,0,"Placebo",24,"Week 24","","01-714-1035","ADADAS","CHG","Change from Baseline",null,null,-7,"Y","","Y",79,2.6,5.83,2,-11,16,null,null,null,null,null],[951,4,0,"Placebo",24,"Week 24","","01-713-1269","ADADAS","CHG","Change from Baseline",null,null,4,"Y","","Y",79,2.6,5.83,2,-11,16,null,null,null,null,null],[952,4,0,"Placebo",24,"Week 24","","01-713-1256","ADADAS","CHG","Change from Baseline",null,null,10,"Y","","Y",79,2.6,5.83,2,-11,16,null,null,null,null,null],[953,4,0,"Placebo",24,"Week 24","","01-713-1179","ADADAS","CHG","Change from Baseline",null,null,2,"Y","","Y",79,2.6,5.83,2,-11,16,null,null,null,null,null],[954,4,0,"Placebo",24,"Week 24","","01-711-1036","ADADAS","CHG","Change from Baseline",null,null,-1,"Y","","Y",79,2.6,5.83,2,-11,16,null,null,null,null,null],[955,4,0,"Placebo",24,"Week 24","","01-710-1368","ADADAS","CHG","Change from Baseline",null,null,4,"Y","","Y",79,2.6,5.83,2,-11,16,null,null,null,null,null],[956,4,0,"Placebo",24,"Week 24","","01-710-1315","ADADAS","CHG","Change from Baseline",null,null,3,"Y","","Y",79,2.6,5.83,2,-11,16,null,null,null,null,null],[957,4,0,"Placebo",24,"Week 24","","01-710-1183","ADADAS","CHG","Change from Baseline",null,null,-2,"Y","","Y",79,2.6,5.83,2,-11,16,null,null,null,null,null],[958,4,0,"Placebo",24,"Week 24","","01-710-1078","ADADAS","CHG","Change from Baseline",null,null,6,"Y","","Y",79,2.6,5.83,2,-11,16,null,null,null,null,null],[959,4,0,"Placebo",24,"Week 24","","01-710-1077","ADADAS","CHG","Change from Baseline",null,null,2,"Y","","Y",79,2.6,5.83,2,-11,16,null,null,null,null,null],[960,4,0,"Placebo",24,"Week 24","","01-710-1027","ADADAS","CHG","Change from Baseline",null,null,0,"Y","","Y",79,2.6,5.83,2,-11,16,null,null,null,null,null],[961,4,0,"Placebo",24,"Week 24","","01-709-1339","ADADAS","CHG","Change from Baseline",null,null,-1,"Y","","Y",79,2.6,5.83,2,-11,16,null,null,null,null,null],[962,4,0,"Placebo",24,"Week 24","","01-709-1312","ADADAS","CHG","Change from Baseline",null,null,2,"Y","","Y",79,2.6,5.83,2,-11,16,null,null,null,null,null],[963,4,0,"Placebo",24,"Week 24","","01-709-1301","ADADAS","CHG","Change from Baseline",null,null,7,"Y","","Y",79,2.6,5.83,2,-11,16,null,null,null,null,null],[964,4,0,"Placebo",24,"Week 24","","01-709-1259","ADADAS","CHG","Change from Baseline",null,null,8,"Y","","Y",79,2.6,5.83,2,-11,16,null,null,null,null,null],[965,4,0,"Placebo",24,"Week 24","","01-709-1088","ADADAS","CHG","Change from Baseline",null,null,4,"Y","","Y",79,2.6,5.83,2,-11,16,null,null,null,null,null],[966,4,0,"Placebo",24,"Week 24","","01-709-1001","ADADAS","CHG","Change from Baseline",null,null,5.79310344828,"Y","","Y",79,2.6,5.83,2,-11,16,null,null,null,null,null],[967,4,0,"Placebo",24,"Week 24","","01-708-1378","ADADAS","CHG","Change from Baseline",null,null,-5,"Y","","Y",79,2.6,5.83,2,-11,16,null,null,null,null,null],[968,4,0,"Placebo",24,"Week 24","","01-708-1342","ADADAS","CHG","Change from Baseline",null,null,-2,"Y","","Y",79,2.6,5.83,2,-11,16,null,null,null,null,null],[969,4,0,"Placebo",24,"Week 24","","01-708-1316","ADADAS","CHG","Change from Baseline",null,null,-1,"Y","","Y",79,2.6,5.83,2,-11,16,null,null,null,null,null],[970,4,0,"Placebo",24,"Week 24","","01-708-1296","ADADAS","CHG","Change from Baseline",null,null,5,"Y","","Y",79,2.6,5.83,2,-11,16,null,null,null,null,null],[971,4,0,"Placebo",24,"Week 24","","01-708-1286","ADADAS","CHG","Change from Baseline",null,null,15.6896551724,"Y","","Y",79,2.6,5.83,2,-11,16,null,null,null,null,null],[972,4,0,"Placebo",24,"Week 24","","01-708-1253","ADADAS","CHG","Change from Baseline",null,null,-1,"Y","","Y",79,2.6,5.83,2,-11,16,null,null,null,null,null],[973,4,0,"Placebo",24,"Week 24","","01-708-1171","ADADAS","CHG","Change from Baseline",null,null,-7,"Y","","Y",79,2.6,5.83,2,-11,16,null,null,null,null,null],[974,4,0,"Placebo",24,"Week 24","","01-709-1306","ADADAS","CHG","Change from Baseline",null,null,2,"Y","","Y",79,2.6,5.83,2,-11,16,null,null,null,null,null],[975,4,0,"Placebo",24,"Week 24","","01-708-1158","ADADAS","CHG","Change from Baseline",null,null,11,"Y","","Y",79,2.6,5.83,2,-11,16,null,null,null,null,null],[976,4,0,"Placebo",24,"Week 24","","01-708-1087","ADADAS","CHG","Change from Baseline",null,null,0,"Y","","Y",79,2.6,5.83,2,-11,16,null,null,null,null,null],[977,4,0,"Placebo",24,"Week 24","","01-707-1206","ADADAS","CHG","Change from Baseline",null,null,16,"Y","","Y",79,2.6,5.83,2,-11,16,null,null,null,null,null],[978,4,0,"Placebo",24,"Week 24","","01-706-1041","ADADAS","CHG","Change from Baseline",null,null,4,"Y","","Y",79,2.6,5.83,2,-11,16,null,null,null,null,null],[979,4,0,"Placebo",24,"Week 24","","01-710-1060","ADADAS","CHG","Change from Baseline",null,null,-1,"Y","","Y",79,2.6,5.83,2,-11,16,null,null,null,null,null],[980,4,0,"Placebo",24,"Week 24","","01-705-1349","ADADAS","CHG","Change from Baseline",null,null,0,"Y","","Y",79,2.6,5.83,2,-11,16,null,null,null,null,null],[981,4,0,"Placebo",24,"Week 24","","01-705-1282","ADADAS","CHG","Change from Baseline",null,null,6,"Y","","Y",79,2.6,5.83,2,-11,16,null,null,null,null,null],[982,4,0,"Placebo",24,"Week 24","","01-710-1264","ADADAS","CHG","Change from Baseline",null,null,3,"Y","","Y",79,2.6,5.83,2,-11,16,null,null,null,null,null],[983,4,0,"Placebo",24,"Week 24","","01-705-1059","ADADAS","CHG","Change from Baseline",null,null,-1,"Y","","Y",79,2.6,5.83,2,-11,16,null,null,null,null,null],[984,4,0,"Placebo",24,"Week 24","","01-704-1445","ADADAS","CHG","Change from Baseline",null,null,7,"Y","","Y",79,2.6,5.83,2,-11,16,null,null,null,null,null],[985,4,0,"Placebo",24,"Week 24","","01-704-1435","ADADAS","CHG","Change from Baseline",null,null,1,"Y","","Y",79,2.6,5.83,2,-11,16,null,null,null,null,null],[986,4,0,"Placebo",24,"Week 24","","01-704-1388","ADADAS","CHG","Change from Baseline",null,null,2,"Y","","Y",79,2.6,5.83,2,-11,16,null,null,null,null,null],[987,4,0,"Placebo",24,"Week 24","","01-704-1351","ADADAS","CHG","Change from Baseline",null,null,1,"Y","","Y",79,2.6,5.83,2,-11,16,null,null,null,null,null],[988,4,0,"Placebo",24,"Week 24","","01-704-1260","ADADAS","CHG","Change from Baseline",null,null,-1,"Y","","Y",79,2.6,5.83,2,-11,16,null,null,null,null,null],[989,4,0,"Placebo",24,"Week 24","","01-714-1375","ADADAS","CHG","Change from Baseline",null,null,0,"Y","","Y",79,2.6,5.83,2,-11,16,null,null,null,null,null],[990,4,0,"Placebo",24,"Week 24","","01-704-1233","ADADAS","CHG","Change from Baseline",null,null,6,"Y","","Y",79,2.6,5.83,2,-11,16,null,null,null,null,null],[991,4,0,"Placebo",24,"Week 24","","01-704-1164","ADADAS","CHG","Change from Baseline",null,null,4,"Y","","Y",79,2.6,5.83,2,-11,16,null,null,null,null,null],[992,4,0,"Placebo",24,"Week 24","","01-704-1127","ADADAS","CHG","Change from Baseline",null,null,6,"Y","","Y",79,2.6,5.83,2,-11,16,null,null,null,null,null],[993,4,0,"Placebo",24,"Week 24","","01-704-1010","ADADAS","CHG","Change from Baseline",null,null,4,"Y","","Y",79,2.6,5.83,2,-11,16,null,null,null,null,null],[994,4,0,"Placebo",24,"Week 24","","01-716-1026","ADADAS","CHG","Change from Baseline",null,null,11,"Y","","Y",79,2.6,5.83,2,-11,16,null,null,null,null,null],[995,4,0,"Placebo",24,"Week 24","","01-703-1299","ADADAS","CHG","Change from Baseline",null,null,6,"Y","","Y",79,2.6,5.83,2,-11,16,null,null,null,null,null],[996,4,0,"Placebo",24,"Week 24","","01-703-1210","ADADAS","CHG","Change from Baseline",null,null,-3,"Y","","Y",79,2.6,5.83,2,-11,16,null,null,null,null,null],[997,4,0,"Placebo",24,"Week 24","","01-703-1175","ADADAS","CHG","Change from Baseline",null,null,0.551724137931,"Y","","Y",79,2.6,5.83,2,-11,16,null,null,null,null,null],[998,4,0,"Placebo",24,"Week 24","","01-703-1100","ADADAS","CHG","Change from Baseline",null,null,-8,"Y","","Y",79,2.6,5.83,2,-11,16,null,null,null,null,null],[999,4,0,"Placebo",24,"Week 24","","01-716-1177","ADADAS","CHG","Change from Baseline",null,null,0,"Y","","Y",79,2.6,5.83,2,-11,16,null,null,null,null,null],[1000,4,0,"Placebo",24,"Week 24","","01-703-1042","ADADAS","CHG","Change from Baseline",null,null,-5,"Y","","Y",79,2.6,5.83,2,-11,16,null,null,null,null,null],[1001,4,0,"Placebo",24,"Week 24","","01-701-1440","ADADAS","CHG","Change from Baseline",null,null,14,"Y","","Y",79,2.6,5.83,2,-11,16,null,null,null,null,null],[1002,4,0,"Placebo",24,"Week 24","","01-701-1415","ADADAS","CHG","Change from Baseline",null,null,11,"Y","","Y",79,2.6,5.83,2,-11,16,null,null,null,null,null],[1003,4,0,"Placebo",24,"Week 24","","01-701-1392","ADADAS","CHG","Change from Baseline",null,null,5,"Y","","Y",79,2.6,5.83,2,-11,16,null,null,null,null,null],[1004,4,0,"Placebo",24,"Week 24","","01-701-1387","ADADAS","CHG","Change from Baseline",null,null,15,"Y","","Y",79,2.6,5.83,2,-11,16,null,null,null,null,null],[1005,4,0,"Placebo",24,"Week 24","","01-701-1363","ADADAS","CHG","Change from Baseline",null,null,3,"Y","","Y",79,2.6,5.83,2,-11,16,null,null,null,null,null],[1006,4,0,"Placebo",24,"Week 24","","01-701-1345","ADADAS","CHG","Change from Baseline",null,null,6,"Y","","Y",79,2.6,5.83,2,-11,16,null,null,null,null,null],[1007,4,0,"Placebo",24,"Week 24","","01-701-1234","ADADAS","CHG","Change from Baseline",null,null,-1,"Y","","Y",79,2.6,5.83,2,-11,16,null,null,null,null,null],[1008,4,0,"Placebo",24,"Week 24","","01-718-1355","ADADAS","CHG","Change from Baseline",null,null,-5,"Y","","Y",79,2.6,5.83,2,-11,16,null,null,null,null,null],[1009,4,0,"Placebo",24,"Week 24","","01-701-1203","ADADAS","CHG","Change from Baseline",null,null,-6,"Y","","Y",79,2.6,5.83,2,-11,16,null,null,null,null,null],[1010,4,0,"Placebo",24,"Week 24","","01-701-1153","ADADAS","CHG","Change from Baseline",null,null,4,"Y","","Y",79,2.6,5.83,2,-11,16,null,null,null,null,null],[1011,4,0,"Placebo",24,"Week 24","","01-701-1130","ADADAS","CHG","Change from Baseline",null,null,-5,"Y","","Y",79,2.6,5.83,2,-11,16,null,null,null,null,null],[1012,4,0,"Placebo",24,"Week 24","","01-701-1118","ADADAS","CHG","Change from Baseline",null,null,-11,"Y","","Y",79,2.6,5.83,2,-11,16,null,null,null,null,null],[1013,4,0,"Placebo",24,"Week 24","","01-701-1047","ADADAS","CHG","Change from Baseline",null,null,9,"Y","","Y",79,2.6,5.83,2,-11,16,null,null,null,null,null],[1014,4,0,"Placebo",24,"Week 24","","01-701-1023","ADADAS","CHG","Change from Baseline",null,null,-1,"Y","","Y",79,2.6,5.83,2,-11,16,null,null,null,null,null],[1015,4,0,"Placebo",24,"Week 24","","01-701-1015","ADADAS","CHG","Change from Baseline",null,null,-5,"Y","","Y",79,2.6,5.83,2,-11,16,null,null,null,null,null],[1016,4,54,"Xanomeline Low Dose",24,"Week 24","","01-701-1294","ADADAS","CHG","Change from Baseline",null,null,0,"Y","","Y",81,2,5.62,2,-11,17,null,null,null,null,null],[1017,4,54,"Xanomeline Low Dose",24,"Week 24","","01-701-1211","ADADAS","CHG","Change from Baseline",null,null,7,"Y","","Y",81,2,5.62,2,-11,17,null,null,null,null,null],[1018,4,54,"Xanomeline Low Dose",24,"Week 24","","01-701-1192","ADADAS","CHG","Change from Baseline",null,null,3,"Y","","Y",81,2,5.62,2,-11,17,null,null,null,null,null],[1019,4,54,"Xanomeline Low Dose",24,"Week 24","","01-701-1188","ADADAS","CHG","Change from Baseline",null,null,-1,"Y","","Y",81,2,5.62,2,-11,17,null,null,null,null,null],[1020,4,54,"Xanomeline Low Dose",24,"Week 24","","01-701-1115","ADADAS","CHG","Change from Baseline",null,null,0,"Y","","Y",81,2,5.62,2,-11,17,null,null,null,null,null],[1021,4,54,"Xanomeline Low Dose",24,"Week 24","","01-701-1111","ADADAS","CHG","Change from Baseline",null,null,2,"Y","","Y",81,2,5.62,2,-11,17,null,null,null,null,null],[1022,4,54,"Xanomeline Low Dose",24,"Week 24","","01-701-1097","ADADAS","CHG","Change from Baseline",null,null,-5.72413793103,"Y","","Y",81,2,5.62,2,-11,17,null,null,null,null,null],[1023,4,54,"Xanomeline Low Dose",24,"Week 24","","01-701-1033","ADADAS","CHG","Change from Baseline",null,null,0,"Y","","Y",81,2,5.62,2,-11,17,null,null,null,null,null],[1024,4,54,"Xanomeline Low Dose",24,"Week 24","","01-718-1254","ADADAS","CHG","Change from Baseline",null,null,3,"Y","","Y",81,2,5.62,2,-11,17,null,null,null,null,null],[1025,4,54,"Xanomeline Low Dose",24,"Week 24","","01-718-1170","ADADAS","CHG","Change from Baseline",null,null,5,"Y","","Y",81,2,5.62,2,-11,17,null,null,null,null,null],[1026,4,54,"Xanomeline Low Dose",24,"Week 24","","01-718-1079","ADADAS","CHG","Change from Baseline",null,null,1,"Y","","Y",81,2,5.62,2,-11,17,null,null,null,null,null],[1027,4,54,"Xanomeline Low Dose",24,"Week 24","","01-718-1066","ADADAS","CHG","Change from Baseline",null,null,17,"Y","","Y",81,2,5.62,2,-11,17,null,null,null,null,null],[1028,4,54,"Xanomeline Low Dose",24,"Week 24","","01-717-1446","ADADAS","CHG","Change from Baseline",null,null,5,"Y","","Y",81,2,5.62,2,-11,17,null,null,null,null,null],[1029,4,54,"Xanomeline Low Dose",24,"Week 24","","01-717-1004","ADADAS","CHG","Change from Baseline",null,null,-5,"Y","","Y",81,2,5.62,2,-11,17,null,null,null,null,null],[1030,4,54,"Xanomeline Low Dose",24,"Week 24","","01-716-1311","ADADAS","CHG","Change from Baseline",null,null,8,"Y","","Y",81,2,5.62,2,-11,17,null,null,null,null,null],[1031,4,54,"Xanomeline Low Dose",24,"Week 24","","01-716-1298","ADADAS","CHG","Change from Baseline",null,null,9,"Y","","Y",81,2,5.62,2,-11,17,null,null,null,null,null],[1032,4,54,"Xanomeline Low Dose",24,"Week 24","","01-716-1157","ADADAS","CHG","Change from Baseline",null,null,12,"Y","","Y",81,2,5.62,2,-11,17,null,null,null,null,null],[1033,4,54,"Xanomeline Low Dose",24,"Week 24","","01-716-1151","ADADAS","CHG","Change from Baseline",null,null,4,"Y","","Y",81,2,5.62,2,-11,17,null,null,null,null,null],[1034,4,54,"Xanomeline Low Dose",24,"Week 24","","01-716-1103","ADADAS","CHG","Change from Baseline",null,null,-2,"Y","","Y",81,2,5.62,2,-11,17,null,null,null,null,null],[1035,4,54,"Xanomeline Low Dose",24,"Week 24","","01-716-1063","ADADAS","CHG","Change from Baseline",null,null,12,"Y","","Y",81,2,5.62,2,-11,17,null,null,null,null,null],[1036,4,54,"Xanomeline Low Dose",24,"Week 24","","01-715-1405","ADADAS","CHG","Change from Baseline",null,null,0,"Y","","Y",81,2,5.62,2,-11,17,null,null,null,null,null],[1037,4,54,"Xanomeline Low Dose",24,"Week 24","","01-715-1107","ADADAS","CHG","Change from Baseline",null,null,1,"Y","","Y",81,2,5.62,2,-11,17,null,null,null,null,null],[1038,4,54,"Xanomeline Low Dose",24,"Week 24","","01-714-1195","ADADAS","CHG","Change from Baseline",null,null,-2,"Y","","Y",81,2,5.62,2,-11,17,null,null,null,null,null],[1039,4,54,"Xanomeline Low Dose",24,"Week 24","","01-714-1068","ADADAS","CHG","Change from Baseline",null,null,4,"Y","","Y",81,2,5.62,2,-11,17,null,null,null,null,null],[1040,4,54,"Xanomeline Low Dose",24,"Week 24","","01-713-1448","ADADAS","CHG","Change from Baseline",null,null,-1,"Y","","Y",81,2,5.62,2,-11,17,null,null,null,null,null],[1041,4,54,"Xanomeline Low Dose",24,"Week 24","","01-713-1073","ADADAS","CHG","Change from Baseline",null,null,2,"Y","","Y",81,2,5.62,2,-11,17,null,null,null,null,null],[1042,4,54,"Xanomeline Low Dose",24,"Week 24","","01-713-1043","ADADAS","CHG","Change from Baseline",null,null,12,"Y","","Y",81,2,5.62,2,-11,17,null,null,null,null,null],[1043,4,54,"Xanomeline Low Dose",24,"Week 24","","01-711-1143","ADADAS","CHG","Change from Baseline",null,null,-2,"Y","","Y",81,2,5.62,2,-11,17,null,null,null,null,null],[1044,4,54,"Xanomeline Low Dose",24,"Week 24","","01-710-1385","ADADAS","CHG","Change from Baseline",null,null,-6,"Y","","Y",81,2,5.62,2,-11,17,null,null,null,null,null],[1045,4,54,"Xanomeline Low Dose",24,"Week 24","","01-710-1300","ADADAS","CHG","Change from Baseline",null,null,4,"Y","","Y",81,2,5.62,2,-11,17,null,null,null,null,null],[1046,4,54,"Xanomeline Low Dose",24,"Week 24","","01-710-1270","ADADAS","CHG","Change from Baseline",null,null,2,"Y","","Y",81,2,5.62,2,-11,17,null,null,null,null,null],[1047,4,54,"Xanomeline Low Dose",24,"Week 24","","01-710-1235","ADADAS","CHG","Change from Baseline",null,null,-1,"Y","","Y",81,2,5.62,2,-11,17,null,null,null,null,null],[1048,4,54,"Xanomeline Low Dose",24,"Week 24","","01-710-1154","ADADAS","CHG","Change from Baseline",null,null,1,"Y","","Y",81,2,5.62,2,-11,17,null,null,null,null,null],[1049,4,54,"Xanomeline Low Dose",24,"Week 24","","01-710-1053","ADADAS","CHG","Change from Baseline",null,null,7,"Y","","Y",81,2,5.62,2,-11,17,null,null,null,null,null],[1050,4,54,"Xanomeline Low Dose",24,"Week 24","","01-710-1045","ADADAS","CHG","Change from Baseline",null,null,10,"Y","","Y",81,2,5.62,2,-11,17,null,null,null,null,null],[1051,4,54,"Xanomeline Low Dose",24,"Week 24","","01-709-1326","ADADAS","CHG","Change from Baseline",null,null,2.41379310345,"Y","","Y",81,2,5.62,2,-11,17,null,null,null,null,null],[1052,4,54,"Xanomeline Low Dose",24,"Week 24","","01-709-1285","ADADAS","CHG","Change from Baseline",null,null,-4,"Y","","Y",81,2,5.62,2,-11,17,null,null,null,null,null],[1053,4,54,"Xanomeline Low Dose",24,"Week 24","","01-709-1217","ADADAS","CHG","Change from Baseline",null,null,5,"Y","","Y",81,2,5.62,2,-11,17,null,null,null,null,null],[1054,4,54,"Xanomeline Low Dose",24,"Week 24","","01-710-1002","ADADAS","CHG","Change from Baseline",null,null,4,"Y","","Y",81,2,5.62,2,-11,17,null,null,null,null,null],[1055,4,54,"Xanomeline Low Dose",24,"Week 24","","01-709-1102","ADADAS","CHG","Change from Baseline",null,null,3.62068965517,"Y","","Y",81,2,5.62,2,-11,17,null,null,null,null,null],[1056,4,54,"Xanomeline Low Dose",24,"Week 24","","01-709-1081","ADADAS","CHG","Change from Baseline",null,null,0,"Y","","Y",81,2,5.62,2,-11,17,null,null,null,null,null],[1057,4,54,"Xanomeline Low Dose",24,"Week 24","","01-709-1020","ADADAS","CHG","Change from Baseline",null,null,-2,"Y","","Y",81,2,5.62,2,-11,17,null,null,null,null,null],[1058,4,54,"Xanomeline Low Dose",24,"Week 24","","01-708-1428","ADADAS","CHG","Change from Baseline",null,null,3,"Y","","Y",81,2,5.62,2,-11,17,null,null,null,null,null],[1059,4,54,"Xanomeline Low Dose",24,"Week 24","","01-710-1166","ADADAS","CHG","Change from Baseline",null,null,4,"Y","","Y",81,2,5.62,2,-11,17,null,null,null,null,null],[1060,4,54,"Xanomeline Low Dose",24,"Week 24","","01-710-1358","ADADAS","CHG","Change from Baseline",null,null,8,"Y","","Y",81,2,5.62,2,-11,17,null,null,null,null,null],[1061,4,54,"Xanomeline Low Dose",24,"Week 24","","01-708-1353","ADADAS","CHG","Change from Baseline",null,null,2,"Y","","Y",81,2,5.62,2,-11,17,null,null,null,null,null],[1062,4,54,"Xanomeline Low Dose",24,"Week 24","","01-708-1348","ADADAS","CHG","Change from Baseline",null,null,-4,"Y","","Y",81,2,5.62,2,-11,17,null,null,null,null,null],[1063,4,54,"Xanomeline Low Dose",24,"Week 24","","01-708-1297","ADADAS","CHG","Change from Baseline",null,null,13,"Y","","Y",81,2,5.62,2,-11,17,null,null,null,null,null],[1064,4,54,"Xanomeline Low Dose",24,"Week 24","","01-708-1272","ADADAS","CHG","Change from Baseline",null,null,3,"Y","","Y",81,2,5.62,2,-11,17,null,null,null,null,null],[1065,4,54,"Xanomeline Low Dose",24,"Week 24","","01-708-1084","ADADAS","CHG","Change from Baseline",null,null,7,"Y","","Y",81,2,5.62,2,-11,17,null,null,null,null,null],[1066,4,54,"Xanomeline Low Dose",24,"Week 24","","01-708-1032","ADADAS","CHG","Change from Baseline",null,null,-1,"Y","","Y",81,2,5.62,2,-11,17,null,null,null,null,null],[1067,4,54,"Xanomeline Low Dose",24,"Week 24","","01-708-1019","ADADAS","CHG","Change from Baseline",null,null,14,"Y","","Y",81,2,5.62,2,-11,17,null,null,null,null,null],[1068,4,54,"Xanomeline Low Dose",24,"Week 24","","01-707-1037","ADADAS","CHG","Change from Baseline",null,null,3,"Y","","Y",81,2,5.62,2,-11,17,null,null,null,null,null],[1069,4,54,"Xanomeline Low Dose",24,"Week 24","","01-715-1085","ADADAS","CHG","Change from Baseline",null,null,6,"Y","","Y",81,2,5.62,2,-11,17,null,null,null,null,null],[1070,4,54,"Xanomeline Low Dose",24,"Week 24","","01-706-1384","ADADAS","CHG","Change from Baseline",null,null,-6,"Y","","Y",81,2,5.62,2,-11,17,null,null,null,null,null],[1071,4,54,"Xanomeline Low Dose",24,"Week 24","","01-705-1431","ADADAS","CHG","Change from Baseline",null,null,-8,"Y","","Y",81,2,5.62,2,-11,17,null,null,null,null,null],[1072,4,54,"Xanomeline Low Dose",24,"Week 24","","01-705-1393","ADADAS","CHG","Change from Baseline",null,null,9,"Y","","Y",81,2,5.62,2,-11,17,null,null,null,null,null],[1073,4,54,"Xanomeline Low Dose",24,"Week 24","","01-705-1292","ADADAS","CHG","Change from Baseline",null,null,-7,"Y","","Y",81,2,5.62,2,-11,17,null,null,null,null,null],[1074,4,54,"Xanomeline Low Dose",24,"Week 24","","01-716-1094","ADADAS","CHG","Change from Baseline",null,null,8.72413793103,"Y","","Y",81,2,5.62,2,-11,17,null,null,null,null,null],[1075,4,54,"Xanomeline Low Dose",24,"Week 24","","01-705-1199","ADADAS","CHG","Change from Baseline",null,null,-2,"Y","","Y",81,2,5.62,2,-11,17,null,null,null,null,null],[1076,4,54,"Xanomeline Low Dose",24,"Week 24","","01-705-1031","ADADAS","CHG","Change from Baseline",null,null,3,"Y","","Y",81,2,5.62,2,-11,17,null,null,null,null,null],[1077,4,54,"Xanomeline Low Dose",24,"Week 24","","01-704-1325","ADADAS","CHG","Change from Baseline",null,null,12,"Y","","Y",81,2,5.62,2,-11,17,null,null,null,null,null],[1078,4,54,"Xanomeline Low Dose",24,"Week 24","","01-704-1218","ADADAS","CHG","Change from Baseline",null,null,2,"Y","","Y",81,2,5.62,2,-11,17,null,null,null,null,null],[1079,4,54,"Xanomeline Low Dose",24,"Week 24","","01-716-1167","ADADAS","CHG","Change from Baseline",null,null,-5,"Y","","Y",81,2,5.62,2,-11,17,null,null,null,null,null],[1080,4,54,"Xanomeline Low Dose",24,"Week 24","","01-704-1135","ADADAS","CHG","Change from Baseline",null,null,1,"Y","","Y",81,2,5.62,2,-11,17,null,null,null,null,null],[1081,4,54,"Xanomeline Low Dose",24,"Week 24","","01-704-1120","ADADAS","CHG","Change from Baseline",null,null,-2,"Y","","Y",81,2,5.62,2,-11,17,null,null,null,null,null],[1082,4,54,"Xanomeline Low Dose",24,"Week 24","","01-704-1114","ADADAS","CHG","Change from Baseline",null,null,-1,"Y","","Y",81,2,5.62,2,-11,17,null,null,null,null,null],[1083,4,54,"Xanomeline Low Dose",24,"Week 24","","01-704-1025","ADADAS","CHG","Change from Baseline",null,null,6,"Y","","Y",81,2,5.62,2,-11,17,null,null,null,null,null],[1084,4,54,"Xanomeline Low Dose",24,"Week 24","","01-718-1250","ADADAS","CHG","Change from Baseline",null,null,5,"Y","","Y",81,2,5.62,2,-11,17,null,null,null,null,null],[1085,4,54,"Xanomeline Low Dose",24,"Week 24","","01-704-1009","ADADAS","CHG","Change from Baseline",null,null,4,"Y","","Y",81,2,5.62,2,-11,17,null,null,null,null,null],[1086,4,54,"Xanomeline Low Dose",24,"Week 24","","01-703-1379","ADADAS","CHG","Change from Baseline",null,null,-11,"Y","","Y",81,2,5.62,2,-11,17,null,null,null,null,null],[1087,4,54,"Xanomeline Low Dose",24,"Week 24","","01-703-1197","ADADAS","CHG","Change from Baseline",null,null,-2,"Y","","Y",81,2,5.62,2,-11,17,null,null,null,null,null],[1088,4,54,"Xanomeline Low Dose",24,"Week 24","","01-703-1182","ADADAS","CHG","Change from Baseline",null,null,3,"Y","","Y",81,2,5.62,2,-11,17,null,null,null,null,null],[1089,4,54,"Xanomeline Low Dose",24,"Week 24","","01-703-1119","ADADAS","CHG","Change from Baseline",null,null,-9,"Y","","Y",81,2,5.62,2,-11,17,null,null,null,null,null],[1090,4,54,"Xanomeline Low Dose",24,"Week 24","","01-703-1086","ADADAS","CHG","Change from Baseline",null,null,-3,"Y","","Y",81,2,5.62,2,-11,17,null,null,null,null,null],[1091,4,54,"Xanomeline Low Dose",24,"Week 24","","01-702-1082","ADADAS","CHG","Change from Baseline",null,null,-1,"Y","","Y",81,2,5.62,2,-11,17,null,null,null,null,null],[1092,4,54,"Xanomeline Low Dose",24,"Week 24","","01-701-1442","ADADAS","CHG","Change from Baseline",null,null,-9,"Y","","Y",81,2,5.62,2,-11,17,null,null,null,null,null],[1093,4,54,"Xanomeline Low Dose",24,"Week 24","","01-701-1429","ADADAS","CHG","Change from Baseline",null,null,1,"Y","","Y",81,2,5.62,2,-11,17,null,null,null,null,null],[1094,4,54,"Xanomeline Low Dose",24,"Week 24","","01-701-1341","ADADAS","CHG","Change from Baseline",null,null,-1,"Y","","Y",81,2,5.62,2,-11,17,null,null,null,null,null],[1095,4,54,"Xanomeline Low Dose",24,"Week 24","","01-701-1324","ADADAS","CHG","Change from Baseline",null,null,1,"Y","","Y",81,2,5.62,2,-11,17,null,null,null,null,null],[1096,4,54,"Xanomeline Low Dose",24,"Week 24","","01-701-1317","ADADAS","CHG","Change from Baseline",null,null,5,"Y","","Y",81,2,5.62,2,-11,17,null,null,null,null,null],[1097,4,81,"Xanomeline High Dose",24,"Week 24","","01-718-1427","ADADAS","CHG","Change from Baseline",null,null,7,"Y","","Y",74,1.4,4.4,1,-7,14,null,null,null,null,null],[1098,4,81,"Xanomeline High Dose",24,"Week 24","","01-718-1371","ADADAS","CHG","Change from Baseline",null,null,-3,"Y","","Y",74,1.4,4.4,1,-7,14,null,null,null,null,null],[1099,4,81,"Xanomeline High Dose",24,"Week 24","","01-718-1328","ADADAS","CHG","Change from Baseline",null,null,5,"Y","","Y",74,1.4,4.4,1,-7,14,null,null,null,null,null],[1100,4,81,"Xanomeline High Dose",24,"Week 24","","01-717-1357","ADADAS","CHG","Change from Baseline",null,null,5,"Y","","Y",74,1.4,4.4,1,-7,14,null,null,null,null,null],[1101,4,81,"Xanomeline High Dose",24,"Week 24","","01-717-1174","ADADAS","CHG","Change from Baseline",null,null,-2,"Y","","Y",74,1.4,4.4,1,-7,14,null,null,null,null,null],[1102,4,81,"Xanomeline High Dose",24,"Week 24","","01-717-1109","ADADAS","CHG","Change from Baseline",null,null,6,"Y","","Y",74,1.4,4.4,1,-7,14,null,null,null,null,null],[1103,4,81,"Xanomeline High Dose",24,"Week 24","","01-716-1418","ADADAS","CHG","Change from Baseline",null,null,5,"Y","","Y",74,1.4,4.4,1,-7,14,null,null,null,null,null],[1104,4,81,"Xanomeline High Dose",24,"Week 24","","01-716-1373","ADADAS","CHG","Change from Baseline",null,null,-1,"Y","","Y",74,1.4,4.4,1,-7,14,null,null,null,null,null],[1105,4,81,"Xanomeline High Dose",24,"Week 24","","01-716-1364","ADADAS","CHG","Change from Baseline",null,null,4,"Y","","Y",74,1.4,4.4,1,-7,14,null,null,null,null,null],[1106,4,81,"Xanomeline High Dose",24,"Week 24","","01-716-1189","ADADAS","CHG","Change from Baseline",null,null,7,"Y","","Y",74,1.4,4.4,1,-7,14,null,null,null,null,null],[1107,4,81,"Xanomeline High Dose",24,"Week 24","","01-716-1071","ADADAS","CHG","Change from Baseline",null,null,-4,"Y","","Y",74,1.4,4.4,1,-7,14,null,null,null,null,null],[1108,4,81,"Xanomeline High Dose",24,"Week 24","","01-716-1030","ADADAS","CHG","Change from Baseline",null,null,-3,"Y","","Y",74,1.4,4.4,1,-7,14,null,null,null,null,null],[1109,4,81,"Xanomeline High Dose",24,"Week 24","","01-715-1321","ADADAS","CHG","Change from Baseline",null,null,1,"Y","","Y",74,1.4,4.4,1,-7,14,null,null,null,null,null],[1110,4,81,"Xanomeline High Dose",24,"Week 24","","01-715-1319","ADADAS","CHG","Change from Baseline",null,null,0,"Y","","Y",74,1.4,4.4,1,-7,14,null,null,null,null,null],[1111,4,81,"Xanomeline High Dose",24,"Week 24","","01-714-1425","ADADAS","CHG","Change from Baseline",null,null,-2,"Y","","Y",74,1.4,4.4,1,-7,14,null,null,null,null,null],[1112,4,81,"Xanomeline High Dose",24,"Week 24","","01-714-1288","ADADAS","CHG","Change from Baseline",null,null,-4,"Y","","Y",74,1.4,4.4,1,-7,14,null,null,null,null,null],[1113,4,81,"Xanomeline High Dose",24,"Week 24","","01-713-1106","ADADAS","CHG","Change from Baseline",null,null,-1,"Y","","Y",74,1.4,4.4,1,-7,14,null,null,null,null,null],[1114,4,81,"Xanomeline High Dose",24,"Week 24","","01-711-1012","ADADAS","CHG","Change from Baseline",null,null,-4.66666666667,"Y","","Y",74,1.4,4.4,1,-7,14,null,null,null,null,null],[1115,4,81,"Xanomeline High Dose",24,"Week 24","","01-710-1408","ADADAS","CHG","Change from Baseline",null,null,0,"Y","","Y",74,1.4,4.4,1,-7,14,null,null,null,null,null],[1116,4,81,"Xanomeline High Dose",24,"Week 24","","01-710-1278","ADADAS","CHG","Change from Baseline",null,null,-1,"Y","","Y",74,1.4,4.4,1,-7,14,null,null,null,null,null],[1117,4,81,"Xanomeline High Dose",24,"Week 24","","01-710-1249","ADADAS","CHG","Change from Baseline",null,null,7,"Y","","Y",74,1.4,4.4,1,-7,14,null,null,null,null,null],[1118,4,81,"Xanomeline High Dose",24,"Week 24","","01-710-1187","ADADAS","CHG","Change from Baseline",null,null,1,"Y","","Y",74,1.4,4.4,1,-7,14,null,null,null,null,null],[1119,4,81,"Xanomeline High Dose",24,"Week 24","","01-710-1070","ADADAS","CHG","Change from Baseline",null,null,3,"Y","","Y",74,1.4,4.4,1,-7,14,null,null,null,null,null],[1120,4,81,"Xanomeline High Dose",24,"Week 24","","01-710-1006","ADADAS","CHG","Change from Baseline",null,null,1,"Y","","Y",74,1.4,4.4,1,-7,14,null,null,null,null,null],[1121,4,81,"Xanomeline High Dose",24,"Week 24","","01-709-1424","ADADAS","CHG","Change from Baseline",null,null,1,"Y","","Y",74,1.4,4.4,1,-7,14,null,null,null,null,null],[1122,4,81,"Xanomeline High Dose",24,"Week 24","","01-709-1329","ADADAS","CHG","Change from Baseline",null,null,-0.310344827586,"Y","","Y",74,1.4,4.4,1,-7,14,null,null,null,null,null],[1123,4,81,"Xanomeline High Dose",24,"Week 24","","01-709-1309","ADADAS","CHG","Change from Baseline",null,null,3,"Y","","Y",74,1.4,4.4,1,-7,14,null,null,null,null,null],[1124,4,81,"Xanomeline High Dose",24,"Week 24","","01-709-1238","ADADAS","CHG","Change from Baseline",null,null,-7,"Y","","Y",74,1.4,4.4,1,-7,14,null,null,null,null,null],[1125,4,81,"Xanomeline High Dose",24,"Week 24","","01-709-1168","ADADAS","CHG","Change from Baseline",null,null,-1,"Y","","Y",74,1.4,4.4,1,-7,14,null,null,null,null,null],[1126,4,81,"Xanomeline High Dose",24,"Week 24","","01-709-1099","ADADAS","CHG","Change from Baseline",null,null,13,"Y","","Y",74,1.4,4.4,1,-7,14,null,null,null,null,null],[1127,4,81,"Xanomeline High Dose",24,"Week 24","","01-709-1029","ADADAS","CHG","Change from Baseline",null,null,9,"Y","","Y",74,1.4,4.4,1,-7,14,null,null,null,null,null],[1128,4,81,"Xanomeline High Dose",24,"Week 24","","01-708-1406","ADADAS","CHG","Change from Baseline",null,null,3,"Y","","Y",74,1.4,4.4,1,-7,14,null,null,null,null,null],[1129,4,81,"Xanomeline High Dose",24,"Week 24","","01-708-1347","ADADAS","CHG","Change from Baseline",null,null,-6,"Y","","Y",74,1.4,4.4,1,-7,14,null,null,null,null,null],[1130,4,81,"Xanomeline High Dose",24,"Week 24","","01-708-1336","ADADAS","CHG","Change from Baseline",null,null,4,"Y","","Y",74,1.4,4.4,1,-7,14,null,null,null,null,null],[1131,4,81,"Xanomeline High Dose",24,"Week 24","","01-708-1216","ADADAS","CHG","Change from Baseline",null,null,4,"Y","","Y",74,1.4,4.4,1,-7,14,null,null,null,null,null],[1132,4,81,"Xanomeline High Dose",24,"Week 24","","01-708-1178","ADADAS","CHG","Change from Baseline",null,null,-3,"Y","","Y",74,1.4,4.4,1,-7,14,null,null,null,null,null],[1133,4,81,"Xanomeline High Dose",24,"Week 24","","01-706-1049","ADADAS","CHG","Change from Baseline",null,null,13,"Y","","Y",74,1.4,4.4,1,-7,14,null,null,null,null,null],[1134,4,81,"Xanomeline High Dose",24,"Week 24","","01-710-1142","ADADAS","CHG","Change from Baseline",null,null,1,"Y","","Y",74,1.4,4.4,1,-7,14,null,null,null,null,null],[1135,4,81,"Xanomeline High Dose",24,"Week 24","","01-705-1310","ADADAS","CHG","Change from Baseline",null,null,2,"Y","","Y",74,1.4,4.4,1,-7,14,null,null,null,null,null],[1136,4,81,"Xanomeline High Dose",24,"Week 24","","01-705-1303","ADADAS","CHG","Change from Baseline",null,null,3,"Y","","Y",74,1.4,4.4,1,-7,14,null,null,null,null,null],[1137,4,81,"Xanomeline High Dose",24,"Week 24","","01-710-1354","ADADAS","CHG","Change from Baseline",null,null,1,"Y","","Y",74,1.4,4.4,1,-7,14,null,null,null,null,null],[1138,4,81,"Xanomeline High Dose",24,"Week 24","","01-705-1281","ADADAS","CHG","Change from Baseline",null,null,3,"Y","","Y",74,1.4,4.4,1,-7,14,null,null,null,null,null],[1139,4,81,"Xanomeline High Dose",24,"Week 24","","01-705-1280","ADADAS","CHG","Change from Baseline",null,null,-1,"Y","","Y",74,1.4,4.4,1,-7,14,null,null,null,null,null],[1140,4,81,"Xanomeline High Dose",24,"Week 24","","01-704-1332","ADADAS","CHG","Change from Baseline",null,null,-2,"Y","","Y",74,1.4,4.4,1,-7,14,null,null,null,null,null],[1141,4,81,"Xanomeline High Dose",24,"Week 24","","01-704-1266","ADADAS","CHG","Change from Baseline",null,null,6,"Y","","Y",74,1.4,4.4,1,-7,14,null,null,null,null,null],[1142,4,81,"Xanomeline High Dose",24,"Week 24","","01-704-1241","ADADAS","CHG","Change from Baseline",null,null,2,"Y","","Y",74,1.4,4.4,1,-7,14,null,null,null,null,null],[1143,4,81,"Xanomeline High Dose",24,"Week 24","","01-704-1093","ADADAS","CHG","Change from Baseline",null,null,1,"Y","","Y",74,1.4,4.4,1,-7,14,null,null,null,null,null],[1144,4,81,"Xanomeline High Dose",24,"Week 24","","01-713-1209","ADADAS","CHG","Change from Baseline",null,null,2,"Y","","Y",74,1.4,4.4,1,-7,14,null,null,null,null,null],[1145,4,81,"Xanomeline High Dose",24,"Week 24","","01-704-1074","ADADAS","CHG","Change from Baseline",null,null,-2,"Y","","Y",74,1.4,4.4,1,-7,14,null,null,null,null,null],[1146,4,81,"Xanomeline High Dose",24,"Week 24","","01-704-1065","ADADAS","CHG","Change from Baseline",null,null,14,"Y","","Y",74,1.4,4.4,1,-7,14,null,null,null,null,null],[1147,4,81,"Xanomeline High Dose",24,"Week 24","","01-704-1017","ADADAS","CHG","Change from Baseline",null,null,3,"Y","","Y",74,1.4,4.4,1,-7,14,null,null,null,null,null],[1148,4,81,"Xanomeline High Dose",24,"Week 24","","01-704-1008","ADADAS","CHG","Change from Baseline",null,null,6,"Y","","Y",74,1.4,4.4,1,-7,14,null,null,null,null,null],[1149,4,81,"Xanomeline High Dose",24,"Week 24","","01-716-1229","ADADAS","CHG","Change from Baseline",null,null,6,"Y","","Y",74,1.4,4.4,1,-7,14,null,null,null,null,null],[1150,4,81,"Xanomeline High Dose",24,"Week 24","","01-703-1439","ADADAS","CHG","Change from Baseline",null,null,-6,"Y","","Y",74,1.4,4.4,1,-7,14,null,null,null,null,null],[1151,4,81,"Xanomeline High Dose",24,"Week 24","","01-703-1335","ADADAS","CHG","Change from Baseline",null,null,4.55172413793,"Y","","Y",74,1.4,4.4,1,-7,14,null,null,null,null,null],[1152,4,81,"Xanomeline High Dose",24,"Week 24","","01-703-1295","ADADAS","CHG","Change from Baseline",null,null,0,"Y","","Y",74,1.4,4.4,1,-7,14,null,null,null,null,null],[1153,4,81,"Xanomeline High Dose",24,"Week 24","","01-703-1258","ADADAS","CHG","Change from Baseline",null,null,-6.75862068966,"Y","","Y",74,1.4,4.4,1,-7,14,null,null,null,null,null],[1154,4,81,"Xanomeline High Dose",24,"Week 24","","01-716-1447","ADADAS","CHG","Change from Baseline",null,null,-6,"Y","","Y",74,1.4,4.4,1,-7,14,null,null,null,null,null],[1155,4,81,"Xanomeline High Dose",24,"Week 24","","01-703-1076","ADADAS","CHG","Change from Baseline",null,null,5,"Y","","Y",74,1.4,4.4,1,-7,14,null,null,null,null,null],[1156,4,81,"Xanomeline High Dose",24,"Week 24","","01-701-1444","ADADAS","CHG","Change from Baseline",null,null,3,"Y","","Y",74,1.4,4.4,1,-7,14,null,null,null,null,null],[1157,4,81,"Xanomeline High Dose",24,"Week 24","","01-718-1101","ADADAS","CHG","Change from Baseline",null,null,2,"Y","","Y",74,1.4,4.4,1,-7,14,null,null,null,null,null],[1158,4,81,"Xanomeline High Dose",24,"Week 24","","01-701-1383","ADADAS","CHG","Change from Baseline",null,null,-2,"Y","","Y",74,1.4,4.4,1,-7,14,null,null,null,null,null],[1159,4,81,"Xanomeline High Dose",24,"Week 24","","01-701-1360","ADADAS","CHG","Change from Baseline",null,null,-1,"Y","","Y",74,1.4,4.4,1,-7,14,null,null,null,null,null],[1160,4,81,"Xanomeline High Dose",24,"Week 24","","01-701-1302","ADADAS","CHG","Change from Baseline",null,null,-1,"Y","","Y",74,1.4,4.4,1,-7,14,null,null,null,null,null],[1161,4,81,"Xanomeline High Dose",24,"Week 24","","01-701-1287","ADADAS","CHG","Change from Baseline",null,null,-2,"Y","","Y",74,1.4,4.4,1,-7,14,null,null,null,null,null],[1162,4,81,"Xanomeline High Dose",24,"Week 24","","01-701-1275","ADADAS","CHG","Change from Baseline",null,null,2,"Y","","Y",74,1.4,4.4,1,-7,14,null,null,null,null,null],[1163,4,81,"Xanomeline High Dose",24,"Week 24","","01-701-1239","ADADAS","CHG","Change from Baseline",null,null,-4,"Y","","Y",74,1.4,4.4,1,-7,14,null,null,null,null,null],[1164,4,81,"Xanomeline High Dose",24,"Week 24","","01-701-1181","ADADAS","CHG","Change from Baseline",null,null,6,"Y","","Y",74,1.4,4.4,1,-7,14,null,null,null,null,null],[1165,4,81,"Xanomeline High Dose",24,"Week 24","","01-701-1180","ADADAS","CHG","Change from Baseline",null,null,1,"Y","","Y",74,1.4,4.4,1,-7,14,null,null,null,null,null],[1166,4,81,"Xanomeline High Dose",24,"Week 24","","01-701-1148","ADADAS","CHG","Change from Baseline",null,null,2,"Y","","Y",74,1.4,4.4,1,-7,14,null,null,null,null,null],[1167,4,81,"Xanomeline High Dose",24,"Week 24","","01-701-1146","ADADAS","CHG","Change from Baseline",null,null,-1,"Y","","Y",74,1.4,4.4,1,-7,14,null,null,nu