{"creationDateTime":"2024-02-14T11:46:22","datasetJSONVersion":"1.0.0","fileOID":"CDISCPILOT01.adadas","clinicalData":{"studyOID":"CDISCPILOT01","metaDataVersionOID":"MDV.CDISCPILOT01","itemGroupData":{"IG.ADADAS":{"records":12463,"name":"ADADAS","label":"ADAS-Cog Analysis","items":[{"OID":"ITEMGROUPDATASEQ","name":"ITEMGROUPDATASEQ","label":"Record Identifier","type":"integer"},{"OID":"IT.ADADAS.STUDYID","name":"STUDYID","label":"Study Identifier","type":"string","length":12,"displayFormat":"."},{"OID":"IT.ADADAS.SITEID","name":"SITEID","label":"Study Site Identifier","type":"string","length":3,"displayFormat":"."},{"OID":"IT.ADADAS.SITEGR1","name":"SITEGR1","label":"Pooled Site Group 1","type":"string","length":3,"displayFormat":"."},{"OID":"IT.ADADAS.USUBJID","name":"USUBJID","label":"Unique Subject Identifier","type":"string","length":11,"displayFormat":"."},{"OID":"IT.ADADAS.TRTSDT","name":"TRTSDT","label":"Date of First Exposure to Treatment","type":"float","length":8,"displayFormat":"DATE9."},{"OID":"IT.ADADAS.TRTEDT","name":"TRTEDT","label":"Date of Last Exposure to Treatment","type":"float","length":8,"displayFormat":"DATE9."},{"OID":"IT.ADADAS.TRTP","name":"TRTP","label":"Planned Treatment","type":"string","length":20,"displayFormat":"."},{"OID":"IT.ADADAS.TRTPN","name":"TRTPN","label":"Planned Treatment (N)","type":"float","length":8,"displayFormat":"."},{"OID":"IT.ADADAS.AGE","name":"AGE","label":"Age","type":"float","length":8,"displayFormat":"."},{"OID":"IT.ADADAS.AGEGR1","name":"AGEGR1","label":"Pooled Age Group 1","type":"string","length":5,"displayFormat":"."},{"OID":"IT.ADADAS.AGEGR1N","name":"AGEGR1N","label":"Pooled Age Group 1 (N)","type":"float","length":8,"displayFormat":"."},{"OID":"IT.ADADAS.RACE","name":"RACE","label":"Race","type":"string","length":32,"displayFormat":"."},{"OID":"IT.ADADAS.RACEN","name":"RACEN","label":"Race (N)","type":"float","length":8,"displayFormat":"."},{"OID":"IT.ADADAS.SEX","name":"SEX","label":"Sex","type":"string","length":1,"displayFormat":"."},{"OID":"IT.ADADAS.ITTFL","name":"ITTFL","label":"Intent-To-Treat Population Flag","type":"string","length":1,"displayFormat":"."},{"OID":"IT.ADADAS.EFFFL","name":"EFFFL","label":"Efficacy Population Flag","type":"string","length":1,"displayFormat":"."},{"OID":"IT.ADADAS.COMP24FL","name":"COMP24FL","label":"Completers of Week 24 Population Flag","type":"string","length":1,"displayFormat":"."},{"OID":"IT.ADADAS.AVISIT","name":"AVISIT","label":"Analysis Visit","type":"string","length":8,"displayFormat":"."},{"OID":"IT.ADADAS.AVISITN","name":"AVISITN","label":"Analysis Visit (N)","type":"float","length":8,"displayFormat":"."},{"OID":"IT.ADADAS.VISIT","name":"VISIT","label":"Visit Name","type":"string","length":17,"displayFormat":"."},{"OID":"IT.ADADAS.VISITNUM","name":"VISITNUM","label":"Visit Number","type":"float","length":8,"displayFormat":"."},{"OID":"IT.ADADAS.ADY","name":"ADY","label":"Analysis Relative Day","type":"float","length":8,"displayFormat":"."},{"OID":"IT.ADADAS.ADT","name":"ADT","label":"Analysis Date","type":"float","length":8,"displayFormat":"DATE9."},{"OID":"IT.ADADAS.PARAM","name":"PARAM","label":"Parameter","type":"string","length":40,"displayFormat":"."},{"OID":"IT.ADADAS.PARAMCD","name":"PARAMCD","label":"Parameter Code","type":"string","length":7,"displayFormat":"."},{"OID":"IT.ADADAS.PARAMN","name":"PARAMN","label":"Parameter (N)","type":"float","length":8,"displayFormat":"."},{"OID":"IT.ADADAS.AVAL","name":"AVAL","label":"Analysis Value","type":"float","length":8,"displayFormat":"."},{"OID":"IT.ADADAS.BASE","name":"BASE","label":"Baseline Value","type":"float","length":8,"displayFormat":"."},{"OID":"IT.ADADAS.CHG","name":"CHG","label":"Change from Baseline","type":"float","length":8,"displayFormat":"."},{"OID":"IT.ADADAS.PCHG","name":"PCHG","label":"Percent Change from Baseline","type":"float","length":8,"displayFormat":"."},{"OID":"IT.ADADAS.ABLFL","name":"ABLFL","label":"Baseline Record Flag","type":"string","length":1,"displayFormat":"."},{"OID":"IT.ADADAS.ANL01FL","name":"ANL01FL","label":"Analysis Flag 01","type":"string","length":1,"displayFormat":"."},{"OID":"IT.ADADAS.DTYPE","name":"DTYPE","label":"Derivation Type","type":"string","length":4,"displayFormat":"."},{"OID":"IT.ADADAS.AWRANGE","name":"AWRANGE","label":"Analysis Window Valid Relative Range","type":"string","length":6,"displayFormat":"."},{"OID":"IT.ADADAS.AWTARGET","name":"AWTARGET","label":"Analysis Window Target","type":"float","length":8,"displayFormat":"."},{"OID":"IT.ADADAS.AWTDIFF","name":"AWTDIFF","label":"Analysis Window Diff from Target","type":"float","length":8,"displayFormat":"."},{"OID":"IT.ADADAS.AWLO","name":"AWLO","label":"Analysis Window Beginning Timepoint","type":"float","length":8,"displayFormat":"."},{"OID":"IT.ADADAS.AWHI","name":"AWHI","label":"Analysis Window Ending Timepoint","type":"float","length":8,"displayFormat":"."},{"OID":"IT.ADADAS.AWU","name":"AWU","label":"Analysis Window Unit","type":"string","length":4,"displayFormat":"."},{"OID":"IT.ADADAS.QSSEQ","name":"QSSEQ","label":"Sequence Number","type":"float","length":8,"displayFormat":"."}],"itemData":[[1,"CDISCPILOT01","701","701","01-701-1015",19725,19906,"Placebo",0,63,"<65",1,"WHITE",1,"F","Y","Y","Y","Baseline",0,"BASELINE",3,1,19725,"Word Recall Task","ACITM01",1,3,3,null,null,"Y","Y","","<=1",1,0,null,1,"DAYS",5001],[2,"CDISCPILOT01","701","701","01-701-1015",19725,19906,"Placebo",0,63,"<65",1,"WHITE",1,"F","Y","Y","Y","Week 16",16,"WEEK 16",10,126,19850,"Word Recall Task","ACITM01",1,4,3,1,33.3333333333,"","Y","","85-140",112,14,85,140,"DAYS",5031],[3,"CDISCPILOT01","701","701","01-701-1015",19725,19906,"Placebo",0,63,"<65",1,"WHITE",1,"F","Y","Y","Y","Week 24",24,"WEEK 24",12,168,19892,"Word Recall Task","ACITM01",1,3,3,0,0,"","Y","",">140",168,0,141,null,"DAYS",5046],[4,"CDISCPILOT01","701","701","01-701-1015",19725,19906,"Placebo",0,63,"<65",1,"WHITE",1,"F","Y","Y","Y","Week 8",8,"WEEK 8",8,63,19787,"Word Recall Task","ACITM01",1,2,3,-1,-33.3333333333,"","Y","","2-84",56,7,2,84,"DAYS",5016],[5,"CDISCPILOT01","701","701","01-701-1015",19725,19906,"Placebo",0,63,"<65",1,"WHITE",1,"F","Y","Y","Y","Baseline",0,"BASELINE",3,1,19725,"Naming Objects And Fingers (Refer To 5 C","ACITM02",2,1,1,null,null,"Y","Y","","<=1",1,0,null,1,"DAYS",5002],[6,"CDISCPILOT01","701","701","01-701-1015",19725,19906,"Placebo",0,63,"<65",1,"WHITE",1,"F","Y","Y","Y","Week 16",16,"WEEK 16",10,126,19850,"Naming Objects And Fingers (Refer To 5 C","ACITM02",2,0,1,-1,-100,"","Y","","85-140",112,14,85,140,"DAYS",5032],[7,"CDISCPILOT01","701","701","01-701-1015",19725,19906,"Placebo",0,63,"<65",1,"WHITE",1,"F","Y","Y","Y","Week 24",24,"WEEK 24",12,168,19892,"Naming Objects And Fingers (Refer To 5 C","ACITM02",2,0,1,-1,-100,"","Y","",">140",168,0,141,null,"DAYS",5047],[8,"CDISCPILOT01","701","701","01-701-1015",19725,19906,"Placebo",0,63,"<65",1,"WHITE",1,"F","Y","Y","Y","Week 8",8,"WEEK 8",8,63,19787,"Naming Objects And Fingers (Refer To 5 C","ACITM02",2,0,1,-1,-100,"","Y","","2-84",56,7,2,84,"DAYS",5017],[9,"CDISCPILOT01","701","701","01-701-1015",19725,19906,"Placebo",0,63,"<65",1,"WHITE",1,"F","Y","Y","Y","Baseline",0,"BASELINE",3,1,19725,"Delayed Word Recall","ACITM03",3,3,3,null,null,"Y","Y","","<=1",1,0,null,1,"DAYS",5003],[10,"CDISCPILOT01","701","701","01-701-1015",19725,19906,"Placebo",0,63,"<65",1,"WHITE",1,"F","Y","Y","Y","Week 16",16,"WEEK 16",10,126,19850,"Delayed Word Recall","ACITM03",3,1,3,-2,-66.6666666667,"","Y","","85-140",112,14,85,140,"DAYS",5033],[11,"CDISCPILOT01","701","701","01-701-1015",19725,19906,"Placebo",0,63,"<65",1,"WHITE",1,"F","Y","Y","Y","Week 24",24,"WEEK 24",12,168,19892,"Delayed Word Recall","ACITM03",3,2,3,-1,-33.3333333333,"","Y","",">140",168,0,141,null,"DAYS",5048],[12,"CDISCPILOT01","701","701","01-701-1015",19725,19906,"Placebo",0,63,"<65",1,"WHITE",1,"F","Y","Y","Y","Week 8",8,"WEEK 8",8,63,19787,"Delayed Word Recall","ACITM03",3,3,3,0,0,"","Y","","2-84",56,7,2,84,"DAYS",5018],[13,"CDISCPILOT01","701","701","01-701-1015",19725,19906,"Placebo",0,63,"<65",1,"WHITE",1,"F","Y","Y","Y","Baseline",0,"BASELINE",3,1,19725,"Commands","ACITM04",4,0,0,null,null,"Y","Y","","<=1",1,0,null,1,"DAYS",5004],[14,"CDISCPILOT01","701","701","01-701-1015",19725,19906,"Placebo",0,63,"<65",1,"WHITE",1,"F","Y","Y","Y","Week 16",16,"WEEK 16",10,126,19850,"Commands","ACITM04",4,0,0,0,null,"","Y","","85-140",112,14,85,140,"DAYS",5034],[15,"CDISCPILOT01","701","701","01-701-1015",19725,19906,"Placebo",0,63,"<65",1,"WHITE",1,"F","Y","Y","Y","Week 24",24,"WEEK 24",12,168,19892,"Commands","ACITM04",4,0,0,0,null,"","Y","",">140",168,0,141,null,"DAYS",5049],[16,"CDISCPILOT01","701","701","01-701-1015",19725,19906,"Placebo",0,63,"<65",1,"WHITE",1,"F","Y","Y","Y","Week 8",8,"WEEK 8",8,63,19787,"Commands","ACITM04",4,0,0,0,null,"","Y","","2-84",56,7,2,84,"DAYS",5019],[17,"CDISCPILOT01","701","701","01-701-1015",19725,19906,"Placebo",0,63,"<65",1,"WHITE",1,"F","Y","Y","Y","Baseline",0,"BASELINE",3,1,19725,"Constructional Praxis","ACITM05",5,3,3,null,null,"Y","Y","","<=1",1,0,null,1,"DAYS",5005],[18,"CDISCPILOT01","701","701","01-701-1015",19725,19906,"Placebo",0,63,"<65",1,"WHITE",1,"F","Y","Y","Y","Week 16",16,"WEEK 16",10,126,19850,"Constructional Praxis","ACITM05",5,2,3,-1,-33.3333333333,"","Y","","85-140",112,14,85,140,"DAYS",5035],[19,"CDISCPILOT01","701","701","01-701-1015",19725,19906,"Placebo",0,63,"<65",1,"WHITE",1,"F","Y","Y","Y","Week 24",24,"WEEK 24",12,168,19892,"Constructional Praxis","ACITM05",5,3,3,0,0,"","Y","",">140",168,0,141,null,"DAYS",5050],[20,"CDISCPILOT01","701","701","01-701-1015",19725,19906,"Placebo",0,63,"<65",1,"WHITE",1,"F","Y","Y","Y","Week 8",8,"WEEK 8",8,63,19787,"Constructional Praxis","ACITM05",5,2,3,-1,-33.3333333333,"","Y","","2-84",56,7,2,84,"DAYS",5020],[21,"CDISCPILOT01","701","701","01-701-1015",19725,19906,"Placebo",0,63,"<65",1,"WHITE",1,"F","Y","Y","Y","Baseline",0,"BASELINE",3,1,19725,"Ideational Praxis","ACITM06",6,0,0,null,null,"Y","Y","","<=1",1,0,null,1,"DAYS",5006],[22,"CDISCPILOT01","701","701","01-701-1015",19725,19906,"Placebo",0,63,"<65",1,"WHITE",1,"F","Y","Y","Y","Week 16",16,"WEEK 16",10,126,19850,"Ideational Praxis","ACITM06",6,0,0,0,null,"","Y","","85-140",112,14,85,140,"DAYS",5036],[23,"CDISCPILOT01","701","701","01-701-1015",19725,19906,"Placebo",0,63,"<65",1,"WHITE",1,"F","Y","Y","Y","Week 24",24,"WEEK 24",12,168,19892,"Ideational Praxis","ACITM06",6,0,0,0,null,"","Y","",">140",168,0,141,null,"DAYS",5051],[24,"CDISCPILOT01","701","701","01-701-1015",19725,19906,"Placebo",0,63,"<65",1,"WHITE",1,"F","Y","Y","Y","Week 8",8,"WEEK 8",8,63,19787,"Ideational Praxis","ACITM06",6,0,0,0,null,"","Y","","2-84",56,7,2,84,"DAYS",5021],[25,"CDISCPILOT01","701","701","01-701-1015",19725,19906,"Placebo",0,63,"<65",1,"WHITE",1,"F","Y","Y","Y","Baseline",0,"BASELINE",3,1,19725,"Orientation","ACITM07",7,1,1,null,null,"Y","Y","","<=1",1,0,null,1,"DAYS",5007],[26,"CDISCPILOT01","701","701","01-701-1015",19725,19906,"Placebo",0,63,"<65",1,"WHITE",1,"F","Y","Y","Y","Week 16",16,"WEEK 16",10,126,19850,"Orientation","ACITM07",7,0,1,-1,-100,"","Y","","85-140",112,14,85,140,"DAYS",5037],[27,"CDISCPILOT01","701","701","01-701-1015",19725,19906,"Placebo",0,63,"<65",1,"WHITE",1,"F","Y","Y","Y","Week 24",24,"WEEK 24",12,168,19892,"Orientation","ACITM07",7,1,1,0,0,"","Y","",">140",168,0,141,null,"DAYS",5052],[28,"CDISCPILOT01","701","701","01-701-1015",19725,19906,"Placebo",0,63,"<65",1,"WHITE",1,"F","Y","Y","Y","Week 8",8,"WEEK 8",8,63,19787,"Orientation","ACITM07",7,0,1,-1,-100,"","Y","","2-84",56,7,2,84,"DAYS",5022],[29,"CDISCPILOT01","701","701","01-701-1015",19725,19906,"Placebo",0,63,"<65",1,"WHITE",1,"F","Y","Y","Y","Baseline",0,"BASELINE",3,1,19725,"Word Recognition","ACITM08",8,1,1,null,null,"Y","Y","","<=1",1,0,null,1,"DAYS",5008],[30,"CDISCPILOT01","701","701","01-701-1015",19725,19906,"Placebo",0,63,"<65",1,"WHITE",1,"F","Y","Y","Y","Week 16",16,"WEEK 16",10,126,19850,"Word Recognition","ACITM08",8,1,1,0,0,"","Y","","85-140",112,14,85,140,"DAYS",5038],[31,"CDISCPILOT01","701","701","01-701-1015",19725,19906,"Placebo",0,63,"<65",1,"WHITE",1,"F","Y","Y","Y","Week 24",24,"WEEK 24",12,168,19892,"Word Recognition","ACITM08",8,1,1,0,0,"","Y","",">140",168,0,141,null,"DAYS",5053],[32,"CDISCPILOT01","701","701","01-701-1015",19725,19906,"Placebo",0,63,"<65",1,"WHITE",1,"F","Y","Y","Y","Week 8",8,"WEEK 8",8,63,19787,"Word Recognition","ACITM08",8,0,1,-1,-100,"","Y","","2-84",56,7,2,84,"DAYS",5023],[33,"CDISCPILOT01","701","701","01-701-1015",19725,19906,"Placebo",0,63,"<65",1,"WHITE",1,"F","Y","Y","Y","Baseline",0,"BASELINE",3,1,19725,"Attention/Visual Search Task","ACITM09",9,23,23,null,null,"Y","Y","","<=1",1,0,null,1,"DAYS",5009],[34,"CDISCPILOT01","701","701","01-701-1015",19725,19906,"Placebo",0,63,"<65",1,"WHITE",1,"F","Y","Y","Y","Week 16",16,"WEEK 16",10,126,19850,"Attention/Visual Search Task","ACITM09",9,34,23,11,47.8260869565,"","Y","","85-140",112,14,85,140,"DAYS",5039],[35,"CDISCPILOT01","701","701","01-701-1015",19725,19906,"Placebo",0,63,"<65",1,"WHITE",1,"F","Y","Y","Y","Week 24",24,"WEEK 24",12,168,19892,"Attention/Visual Search Task","ACITM09",9,39,23,16,69.5652173913,"","Y","",">140",168,0,141,null,"DAYS",5054],[36,"CDISCPILOT01","701","701","01-701-1015",19725,19906,"Placebo",0,63,"<65",1,"WHITE",1,"F","Y","Y","Y","Week 8",8,"WEEK 8",8,63,19787,"Attention/Visual Search Task","ACITM09",9,27,23,4,17.3913043478,"","Y","","2-84",56,7,2,84,"DAYS",5024],[37,"CDISCPILOT01","701","701","01-701-1015",19725,19906,"Placebo",0,63,"<65",1,"WHITE",1,"F","Y","Y","Y","Baseline",0,"BASELINE",3,1,19725,"Maze Solution","ACITM10",10,3,3,null,null,"Y","Y","","<=1",1,0,null,1,"DAYS",5010],[38,"CDISCPILOT01","701","701","01-701-1015",19725,19906,"Placebo",0,63,"<65",1,"WHITE",1,"F","Y","Y","Y","Week 16",16,"WEEK 16",10,126,19850,"Maze Solution","ACITM10",10,4,3,1,33.3333333333,"","Y","","85-140",112,14,85,140,"DAYS",5040],[39,"CDISCPILOT01","701","701","01-701-1015",19725,19906,"Placebo",0,63,"<65",1,"WHITE",1,"F","Y","Y","Y","Week 24",24,"WEEK 24",12,168,19892,"Maze Solution","ACITM10",10,3,3,0,0,"","Y","",">140",168,0,141,null,"DAYS",5055],[40,"CDISCPILOT01","701","701","01-701-1015",19725,19906,"Placebo",0,63,"<65",1,"WHITE",1,"F","Y","Y","Y","Week 8",8,"WEEK 8",8,63,19787,"Maze Solution","ACITM10",10,4,3,1,33.3333333333,"","Y","","2-84",56,7,2,84,"DAYS",5025],[41,"CDISCPILOT01","701","701","01-701-1015",19725,19906,"Placebo",0,63,"<65",1,"WHITE",1,"F","Y","Y","Y","Baseline",0,"BASELINE",3,1,19725,"Spoken Language Ability","ACITM11",11,1,1,null,null,"Y","Y","","<=1",1,0,null,1,"DAYS",5011],[42,"CDISCPILOT01","701","701","01-701-1015",19725,19906,"Placebo",0,63,"<65",1,"WHITE",1,"F","Y","Y","Y","Week 16",16,"WEEK 16",10,126,19850,"Spoken Language Ability","ACITM11",11,1,1,0,0,"","Y","","85-140",112,14,85,140,"DAYS",5041],[43,"CDISCPILOT01","701","701","01-701-1015",19725,19906,"Placebo",0,63,"<65",1,"WHITE",1,"F","Y","Y","Y","Week 24",24,"WEEK 24",12,168,19892,"Spoken Language Ability","ACITM11",11,0,1,-1,-100,"","Y","",">140",168,0,141,null,"DAYS",5056],[44,"CDISCPILOT01","701","701","01-701-1015",19725,19906,"Placebo",0,63,"<65",1,"WHITE",1,"F","Y","Y","Y","Week 8",8,"WEEK 8",8,63,19787,"Spoken Language Ability","ACITM11",11,1,1,0,0,"","Y","","2-84",56,7,2,84,"DAYS",5026],[45,"CDISCPILOT01","701","701","01-701-1015",19725,19906,"Placebo",0,63,"<65",1,"WHITE",1,"F","Y","Y","Y","Baseline",0,"BASELINE",3,1,19725,"Comprehension Of Spoken Language","ACITM12",12,1,1,null,null,"Y","Y","","<=1",1,0,null,1,"DAYS",5012],[46,"CDISCPILOT01","701","701","01-701-1015",19725,19906,"Placebo",0,63,"<65",1,"WHITE",1,"F","Y","Y","Y","Week 16",16,"WEEK 16",10,126,19850,"Comprehension Of Spoken Language","ACITM12",12,1,1,0,0,"","Y","","85-140",112,14,85,140,"DAYS",5042],[47,"CDISCPILOT01","701","701","01-701-1015",19725,19906,"Placebo",0,63,"<65",1,"WHITE",1,"F","Y","Y","Y","Week 24",24,"WEEK 24",12,168,19892,"Comprehension Of Spoken Language","ACITM12",12,0,1,-1,-100,"","Y","",">140",168,0,141,null,"DAYS",5057],[48,"CDISCPILOT01","701","701","01-701-1015",19725,19906,"Placebo",0,63,"<65",1,"WHITE",1,"F","Y","Y","Y","Week 8",8,"WEEK 8",8,63,19787,"Comprehension Of Spoken Language","ACITM12",12,1,1,0,0,"","Y","","2-84",56,7,2,84,"DAYS",5027],[49,"CDISCPILOT01","701","701","01-701-1015",19725,19906,"Placebo",0,63,"<65",1,"WHITE",1,"F","Y","Y","Y","Baseline",0,"BASELINE",3,1,19725,"Word Finding Difficulty In Spontaneous S","ACITM13",13,1,1,null,null,"Y","Y","","<=1",1,0,null,1,"DAYS",5013],[50,"CDISCPILOT01","701","701","01-701-1015",19725,19906,"Placebo",0,63,"<65",1,"WHITE",1,"F","Y","Y","Y","Week 16",16,"WEEK 16",10,126,19850,"Word Finding Difficulty In Spontaneous S","ACITM13",13,1,1,0,0,"","Y","","85-140",112,14,85,140,"DAYS",5043],[51,"CDISCPILOT01","701","701","01-701-1015",19725,19906,"Placebo",0,63,"<65",1,"WHITE",1,"F","Y","Y","Y","Week 24",24,"WEEK 24",12,168,19892,"Word Finding Difficulty In Spontaneous S","ACITM13",13,0,1,-1,-100,"","Y","",">140",168,0,141,null,"DAYS",5058],[52,"CDISCPILOT01","701","701","01-701-1015",19725,19906,"Placebo",0,63,"<65",1,"WHITE",1,"F","Y","Y","Y","Week 8",8,"WEEK 8",8,63,19787,"Word Finding Difficulty In Spontaneous S","ACITM13",13,1,1,0,0,"","Y","","2-84",56,7,2,84,"DAYS",5028],[53,"CDISCPILOT01","701","701","01-701-1015",19725,19906,"Placebo",0,63,"<65",1,"WHITE",1,"F","Y","Y","Y","Baseline",0,"BASELINE",3,1,19725,"Recall Of Test Instructions","ACITM14",14,1,1,null,null,"Y","Y","","<=1",1,0,null,1,"DAYS",5014],[54,"CDISCPILOT01","701","701","01-701-1015",19725,19906,"Placebo",0,63,"<65",1,"WHITE",1,"F","Y","Y","Y","Week 16",16,"WEEK 16",10,126,19850,"Recall Of Test Instructions","ACITM14",14,1,1,0,0,"","Y","","85-140",112,14,85,140,"DAYS",5044],[55,"CDISCPILOT01","701","701","01-701-1015",19725,19906,"Placebo",0,63,"<65",1,"WHITE",1,"F","Y","Y","Y","Week 24",24,"WEEK 24",12,168,19892,"Recall Of Test Instructions","ACITM14",14,0,1,-1,-100,"","Y","",">140",168,0,141,null,"DAYS",5059],[56,"CDISCPILOT01","701","701","01-701-1015",19725,19906,"Placebo",0,63,"<65",1,"WHITE",1,"F","Y","Y","Y","Week 8",8,"WEEK 8",8,63,19787,"Recall Of Test Instructions","ACITM14",14,1,1,0,0,"","Y","","2-84",56,7,2,84,"DAYS",5029],[57,"CDISCPILOT01","701","701","01-701-1015",19725,19906,"Placebo",0,63,"<65",1,"WHITE",1,"F","Y","Y","Y","Baseline",0,"BASELINE",3,1,19725,"Adas-Cog(11) Subscore","ACTOT",15,13,13,null,null,"Y","Y","","<=1",1,0,null,1,"DAYS",5015],[58,"CDISCPILOT01","701","701","01-701-1015",19725,19906,"Placebo",0,63,"<65",1,"WHITE",1,"F","Y","Y","Y","Week 16",16,"WEEK 16",10,126,19850,"Adas-Cog(11) Subscore","ACTOT",15,11,13,-2,-15.3846153846,"","Y","","85-140",112,14,85,140,"DAYS",5045],[59,"CDISCPILOT01","701","701","01-701-1015",19725,19906,"Placebo",0,63,"<65",1,"WHITE",1,"F","Y","Y","Y","Week 24",24,"WEEK 24",12,168,19892,"Adas-Cog(11) Subscore","ACTOT",15,8,13,-5,-38.4615384615,"","Y","",">140",168,0,141,null,"DAYS",5060],[60,"CDISCPILOT01","701","701","01-701-1015",19725,19906,"Placebo",0,63,"<65",1,"WHITE",1,"F","Y","Y","Y","Week 8",8,"WEEK 8",8,63,19787,"Adas-Cog(11) Subscore","ACTOT",15,8,13,-5,-38.4615384615,"","Y","","2-84",56,7,2,84,"DAYS",5030],[61,"CDISCPILOT01","701","701","01-701-1023",19210,19237,"Placebo",0,64,"<65",1,"WHITE",1,"M","Y","Y","N","Baseline",0,"BASELINE",3,1,19210,"Word Recall Task","ACITM01",1,4,4,null,null,"Y","Y","","<=1",1,0,null,1,"DAYS",5001],[62,"CDISCPILOT01","701","701","01-701-1023",19210,19237,"Placebo",0,64,"<65",1,"WHITE",1,"M","Y","Y","N","Week 24",24,"RETRIEVAL",201,198,19407,"Word Recall Task","ACITM01",1,3,4,-1,-25,"","Y","",">140",168,30,141,null,"DAYS",5031],[63,"CDISCPILOT01","701","701","01-701-1023",19210,19237,"Placebo",0,64,"<65",1,"WHITE",1,"M","Y","Y","N","Week 8",8,"WEEK 4",5,29,19238,"Word Recall Task","ACITM01",1,2,4,-2,-50,"","Y","","2-84",56,27,2,84,"DAYS",5016],[64,"CDISCPILOT01","701","701","01-701-1023",19210,19237,"Placebo",0,64,"<65",1,"WHITE",1,"M","Y","Y","N","Baseline",0,"BASELINE",3,1,19210,"Naming Objects And Fingers (Refer To 5 C","ACITM02",2,2,2,null,null,"Y","Y","","<=1",1,0,null,1,"DAYS",5002],[65,"CDISCPILOT01","701","701","01-701-1023",19210,19237,"Placebo",0,64,"<65",1,"WHITE",1,"M","Y","Y","N","Week 24",24,"RETRIEVAL",201,198,19407,"Naming Objects And Fingers (Refer To 5 C","ACITM02",2,0,2,-2,-100,"","Y","",">140",168,30,141,null,"DAYS",5032],[66,"CDISCPILOT01","701","701","01-701-1023",19210,19237,"Placebo",0,64,"<65",1,"WHITE",1,"M","Y","Y","N","Week 8",8,"WEEK 4",5,29,19238,"Naming Objects And Fingers (Refer To 5 C","ACITM02",2,2,2,0,0,"","Y","","2-84",56,27,2,84,"DAYS",5017],[67,"CDISCPILOT01","701","701","01-701-1023",19210,19237,"Placebo",0,64,"<65",1,"WHITE",1,"M","Y","Y","N","Baseline",0,"BASELINE",3,1,19210,"Delayed Word Recall","ACITM03",3,2,2,null,null,"Y","Y","","<=1",1,0,null,1,"DAYS",5003],[68,"CDISCPILOT01","701","701","01-701-1023",19210,19237,"Placebo",0,64,"<65",1,"WHITE",1,"M","Y","Y","N","Week 24",24,"RETRIEVAL",201,198,19407,"Delayed Word Recall","ACITM03",3,3,2,1,50,"","Y","",">140",168,30,141,null,"DAYS",5033],[69,"CDISCPILOT01","701","701","01-701-1023",19210,19237,"Placebo",0,64,"<65",1,"WHITE",1,"M","Y","Y","N","Week 8",8,"WEEK 4",5,29,19238,"Delayed Word Recall","ACITM03",3,2,2,0,0,"","Y","","2-84",56,27,2,84,"DAYS",5018],[70,"CDISCPILOT01","701","701","01-701-1023",19210,19237,"Placebo",0,64,"<65",1,"WHITE",1,"M","Y","Y","N","Baseline",0,"BASELINE",3,1,19210,"Commands","ACITM04",4,0,0,null,null,"Y","Y","","<=1",1,0,null,1,"DAYS",5004],[71,"CDISCPILOT01","701","701","01-701-1023",19210,19237,"Placebo",0,64,"<65",1,"WHITE",1,"M","Y","Y","N","Week 24",24,"RETRIEVAL",201,198,19407,"Commands","ACITM04",4,0,0,0,null,"","Y","",">140",168,30,141,null,"DAYS",5034],[72,"CDISCPILOT01","701","701","01-701-1023",19210,19237,"Placebo",0,64,"<65",1,"WHITE",1,"M","Y","Y","N","Week 8",8,"WEEK 4",5,29,19238,"Commands","ACITM04",4,0,0,0,null,"","Y","","2-84",56,27,2,84,"DAYS",5019],[73,"CDISCPILOT01","701","701","01-701-1023",19210,19237,"Placebo",0,64,"<65",1,"WHITE",1,"M","Y","Y","N","Baseline",0,"BASELINE",3,1,19210,"Constructional Praxis","ACITM05",5,3,3,null,null,"Y","Y","","<=1",1,0,null,1,"DAYS",5005],[74,"CDISCPILOT01","701","701","01-701-1023",19210,19237,"Placebo",0,64,"<65",1,"WHITE",1,"M","Y","Y","N","Week 24",24,"RETRIEVAL",201,198,19407,"Constructional Praxis","ACITM05",5,4,3,1,33.3333333333,"","Y","",">140",168,30,141,null,"DAYS",5035],[75,"CDISCPILOT01","701","701","01-701-1023",19210,19237,"Placebo",0,64,"<65",1,"WHITE",1,"M","Y","Y","N","Week 8",8,"WEEK 4",5,29,19238,"Constructional Praxis","ACITM05",5,2,3,-1,-33.3333333333,"","Y","","2-84",56,27,2,84,"DAYS",5020],[76,"CDISCPILOT01","701","701","01-701-1023",19210,19237,"Placebo",0,64,"<65",1,"WHITE",1,"M","Y","Y","N","Baseline",0,"BASELINE",3,1,19210,"Ideational Praxis","ACITM06",6,0,0,null,null,"Y","Y","","<=1",1,0,null,1,"DAYS",5006],[77,"CDISCPILOT01","701","701","01-701-1023",19210,19237,"Placebo",0,64,"<65",1,"WHITE",1,"M","Y","Y","N","Week 24",24,"RETRIEVAL",201,198,19407,"Ideational Praxis","ACITM06",6,0,0,0,null,"","Y","",">140",168,30,141,null,"DAYS",5036],[78,"CDISCPILOT01","701","701","01-701-1023",19210,19237,"Placebo",0,64,"<65",1,"WHITE",1,"M","Y","Y","N","Week 8",8,"WEEK 4",5,29,19238,"Ideational Praxis","ACITM06",6,0,0,0,null,"","Y","","2-84",56,27,2,84,"DAYS",5021],[79,"CDISCPILOT01","701","701","01-701-1023",19210,19237,"Placebo",0,64,"<65",1,"WHITE",1,"M","Y","Y","N","Baseline",0,"BASELINE",3,1,19210,"Orientation","ACITM07",7,2,2,null,null,"Y","Y","","<=1",1,0,null,1,"DAYS",5007],[80,"CDISCPILOT01","701","701","01-701-1023",19210,19237,"Placebo",0,64,"<65",1,"WHITE",1,"M","Y","Y","N","Week 24",24,"RETRIEVAL",201,198,19407,"Orientation","ACITM07",7,0,2,-2,-100,"","Y","",">140",168,30,141,null,"DAYS",5037],[81,"CDISCPILOT01","701","701","01-701-1023",19210,19237,"Placebo",0,64,"<65",1,"WHITE",1,"M","Y","Y","N","Week 8",8,"WEEK 4",5,29,19238,"Orientation","ACITM07",7,1,2,-1,-50,"","Y","","2-84",56,27,2,84,"DAYS",5022],[82,"CDISCPILOT01","701","701","01-701-1023",19210,19237,"Placebo",0,64,"<65",1,"WHITE",1,"M","Y","Y","N","Baseline",0,"BASELINE",3,1,19210,"Word Recognition","ACITM08",8,2,2,null,null,"Y","Y","","<=1",1,0,null,1,"DAYS",5008],[83,"CDISCPILOT01","701","701","01-701-1023",19210,19237,"Placebo",0,64,"<65",1,"WHITE",1,"M","Y","Y","N","Week 24",24,"RETRIEVAL",201,198,19407,"Word Recognition","ACITM08",8,1,2,-1,-50,"","Y","",">140",168,30,141,null,"DAYS",5038],[84,"CDISCPILOT01","701","701","01-701-1023",19210,19237,"Placebo",0,64,"<65",1,"WHITE",1,"M","Y","Y","N","Week 8",8,"WEEK 4",5,29,19238,"Word Recognition","ACITM08",8,1,2,-1,-50,"","Y","","2-84",56,27,2,84,"DAYS",5023],[85,"CDISCPILOT01","701","701","01-701-1023",19210,19237,"Placebo",0,64,"<65",1,"WHITE",1,"M","Y","Y","N","Baseline",0,"BASELINE",3,1,19210,"Attention/Visual Search Task","ACITM09",9,39,39,null,null,"Y","Y","","<=1",1,0,null,1,"DAYS",5009],[86,"CDISCPILOT01","701","701","01-701-1023",19210,19237,"Placebo",0,64,"<65",1,"WHITE",1,"M","Y","Y","N","Week 24",24,"RETRIEVAL",201,198,19407,"Attention/Visual Search Task","ACITM09",9,37,39,-2,-5.12820512821,"","Y","",">140",168,30,141,null,"DAYS",5039],[87,"CDISCPILOT01","701","701","01-701-1023",19210,19237,"Placebo",0,64,"<65",1,"WHITE",1,"M","Y","Y","N","Week 8",8,"WEEK 4",5,29,19238,"Attention/Visual Search Task","ACITM09",9,40,39,1,2.5641025641,"","Y","","2-84",56,27,2,84,"DAYS",5024],[88,"CDISCPILOT01","701","701","01-701-1023",19210,19237,"Placebo",0,64,"<65",1,"WHITE",1,"M","Y","Y","N","Baseline",0,"BASELINE",3,1,19210,"Maze Solution","ACITM10",10,5,5,null,null,"Y","Y","","<=1",1,0,null,1,"DAYS",5010],[89,"CDISCPILOT01","701","701","01-701-1023",19210,19237,"Placebo",0,64,"<65",1,"WHITE",1,"M","Y","Y","N","Week 24",24,"RETRIEVAL",201,198,19407,"Maze Solution","ACITM10",10,3,5,-2,-40,"","Y","",">140",168,30,141,null,"DAYS",5040],[90,"CDISCPILOT01","701","701","01-701-1023",19210,19237,"Placebo",0,64,"<65",1,"WHITE",1,"M","Y","Y","N","Week 8",8,"WEEK 4",5,29,19238,"Maze Solution","ACITM10",10,5,5,0,0,"","Y","","2-84",56,27,2,84,"DAYS",5025],[91,"CDISCPILOT01","701","701","01-701-1023",19210,19237,"Placebo",0,64,"<65",1,"WHITE",1,"M","Y","Y","N","Baseline",0,"BASELINE",3,1,19210,"Spoken Language Ability","ACITM11",11,0,0,null,null,"Y","Y","","<=1",1,0,null,1,"DAYS",5011],[92,"CDISCPILOT01","701","701","01-701-1023",19210,19237,"Placebo",0,64,"<65",1,"WHITE",1,"M","Y","Y","N","Week 24",24,"RETRIEVAL",201,198,19407,"Spoken Language Ability","ACITM11",11,1,0,1,null,"","Y","",">140",168,30,141,null,"DAYS",5041],[93,"CDISCPILOT01","701","701","01-701-1023",19210,19237,"Placebo",0,64,"<65",1,"WHITE",1,"M","Y","Y","N","Week 8",8,"WEEK 4",5,29,19238,"Spoken Language Ability","ACITM11",11,0,0,0,null,"","Y","","2-84",56,27,2,84,"DAYS",5026],[94,"CDISCPILOT01","701","701","01-701-1023",19210,19237,"Placebo",0,64,"<65",1,"WHITE",1,"M","Y","Y","N","Baseline",0,"BASELINE",3,1,19210,"Comprehension Of Spoken Language","ACITM12",12,0,0,null,null,"Y","Y","","<=1",1,0,null,1,"DAYS",5012],[95,"CDISCPILOT01","701","701","01-701-1023",19210,19237,"Placebo",0,64,"<65",1,"WHITE",1,"M","Y","Y","N","Week 24",24,"RETRIEVAL",201,198,19407,"Comprehension Of Spoken Language","ACITM12",12,1,0,1,null,"","Y","",">140",168,30,141,null,"DAYS",5042],[96,"CDISCPILOT01","701","701","01-701-1023",19210,19237,"Placebo",0,64,"<65",1,"WHITE",1,"M","Y","Y","N","Week 8",8,"WEEK 4",5,29,19238,"Comprehension Of Spoken Language","ACITM12",12,0,0,0,null,"","Y","","2-84",56,27,2,84,"DAYS",5027],[97,"CDISCPILOT01","701","701","01-701-1023",19210,19237,"Placebo",0,64,"<65",1,"WHITE",1,"M","Y","Y","N","Baseline",0,"BASELINE",3,1,19210,"Word Finding Difficulty In Spontaneous S","ACITM13",13,0,0,null,null,"Y","Y","","<=1",1,0,null,1,"DAYS",5013],[98,"CDISCPILOT01","701","701","01-701-1023",19210,19237,"Placebo",0,64,"<65",1,"WHITE",1,"M","Y","Y","N","Week 24",24,"RETRIEVAL",201,198,19407,"Word Finding Difficulty In Spontaneous S","ACITM13",13,1,0,1,null,"","Y","",">140",168,30,141,null,"DAYS",5043],[99,"CDISCPILOT01","701","701","01-701-1023",19210,19237,"Placebo",0,64,"<65",1,"WHITE",1,"M","Y","Y","N","Week 8",8,"WEEK 4",5,29,19238,"Word Finding Difficulty In Spontaneous S","ACITM13",13,0,0,0,null,"","Y","","2-84",56,27,2,84,"DAYS",5028],[100,"CDISCPILOT01","701","701","01-701-1023",19210,19237,"Placebo",0,64,"<65",1,"WHITE",1,"M","Y","Y","N","Baseline",0,"BASELINE",3,1,19210,"Recall Of Test Instructions","ACITM14",14,0,0,null,null,"Y","Y","","<=1",1,0,null,1,"DAYS",5014],[101,"CDISCPILOT01","701","701","01-701-1023",19210,19237,"Placebo",0,64,"<65",1,"WHITE",1,"M","Y","Y","N","Week 24",24,"RETRIEVAL",201,198,19407,"Recall Of Test Instructions","ACITM14",14,1,0,1,null,"","Y","",">140",168,30,141,null,"DAYS",5044],[102,"CDISCPILOT01","701","701","01-701-1023",19210,19237,"Placebo",0,64,"<65",1,"WHITE",1,"M","Y","Y","N","Week 8",8,"WEEK 4",5,29,19238,"Recall Of Test Instructions","ACITM14",14,0,0,0,null,"","Y","","2-84",56,27,2,84,"DAYS",5029],[103,"CDISCPILOT01","701","701","01-701-1023",19210,19237,"Placebo",0,64,"<65",1,"WHITE",1,"M","Y","Y","N","Baseline",0,"BASELINE",3,1,19210,"Adas-Cog(11) Subscore","ACTOT",15,13,13,null,null,"Y","Y","","<=1",1,0,null,1,"DAYS",5015],[104,"CDISCPILOT01","701","701","01-701-1023",19210,19237,"Placebo",0,64,"<65",1,"WHITE",1,"M","Y","Y","N","Week 16",16,"WEEK 4",5,29,19238,"Adas-Cog(11) Subscore","ACTOT",15,8,13,-5,-38.4615384615,"","Y","LOCF","85-140",112,83,85,140,"DAYS",5030],[105,"CDISCPILOT01","701","701","01-701-1023",19210,19237,"Placebo",0,64,"<65",1,"WHITE",1,"M","Y","Y","N","Week 24",24,"RETRIEVAL",201,198,19407,"Adas-Cog(11) Subscore","ACTOT",15,12,13,-1,-7.69230769231,"","Y","",">140",168,30,141,null,"DAYS",5045],[106,"CDISCPILOT01","701","701","01-701-1023",19210,19237,"Placebo",0,64,"<65",1,"WHITE",1,"M","Y","Y","N","Week 8",8,"WEEK 4",5,29,19238,"Adas-Cog(11) Subscore","ACTOT",15,8,13,-5,-38.4615384615,"","Y","","2-84",56,27,2,84,"DAYS",5030],[107,"CDISCPILOT01","701","701","01-701-1028",19558,19737,"Xanomeline High Dose",81,71,"65-80",2,"WHITE",1,"M","Y","Y","Y","Baseline",0,"BASELINE",3,1,19558,"Word Recall Task","ACITM01",1,1,1,null,null,"Y","Y","","<=1",1,0,null,1,"DAYS",5001],[108,"CDISCPILOT01","701","701","01-701-1028",19558,19737,"Xanomeline High Dose",81,71,"65-80",2,"WHITE",1,"M","Y","Y","Y","Week 16",16,"WEEK 16",10,111,19668,"Word Recall Task","ACITM01",1,3,1,2,200,"","Y","","85-140",112,1,85,140,"DAYS",5031],[109,"CDISCPILOT01","701","701","01-701-1028",19558,19737,"Xanomeline High Dose",81,71,"65-80",2,"WHITE",1,"M","Y","Y","Y","Week 24",24,"WEEK 24",12,172,19729,"Word Recall Task","ACITM01",1,2,1,1,100,"","Y","",">140",168,4,141,null,"DAYS",5046],[110,"CDISCPILOT01","701","701","01-701-1028",19558,19737,"Xanomeline High Dose",81,71,"65-80",2,"WHITE",1,"M","Y","Y","Y","Week 8",8,"WEEK 8",8,54,19611,"Word Recall Task","ACITM01",1,1,1,0,0,"","Y","","2-84",56,2,2,84,"DAYS",5016],[111,"CDISCPILOT01","701","701","01-701-1028",19558,19737,"Xanomeline High Dose",81,71,"65-80",2,"WHITE",1,"M","Y","Y","Y","Baseline",0,"BASELINE",3,1,19558,"Naming Objects And Fingers (Refer To 5 C","ACITM02",2,0,0,null,null,"Y","Y","","<=1",1,0,null,1,"DAYS",5002],[112,"CDISCPILOT01","701","701","01-701-1028",19558,19737,"Xanomeline High Dose",81,71,"65-80",2,"WHITE",1,"M","Y","Y","Y","Week 16",16,"WEEK 16",10,111,19668,"Naming Objects And Fingers (Refer To 5 C","ACITM02",2,0,0,0,null,"","Y","","85-140",112,1,85,140,"DAYS",5032],[113,"CDISCPILOT01","701","701","01-701-1028",19558,19737,"Xanomeline High Dose",81,71,"65-80",2,"WHITE",1,"M","Y","Y","Y","Week 24",24,"WEEK 24",12,172,19729,"Naming Objects And Fingers (Refer To 5 C","ACITM02",2,0,0,0,null,"","Y","",">140",168,4,141,null,"DAYS",5047],[114,"CDISCPILOT01","701","701","01-701-1028",19558,19737,"Xanomeline High Dose",81,71,"65-80",2,"WHITE",1,"M","Y","Y","Y","Week 8",8,"WEEK 8",8,54,19611,"Naming Objects And Fingers (Refer To 5 C","ACITM02",2,0,0,0,null,"","Y","","2-84",56,2,2,84,"DAYS",5017],[115,"CDISCPILOT01","701","701","01-701-1028",19558,19737,"Xanomeline High Dose",81,71,"65-80",2,"WHITE",1,"M","Y","Y","Y","Baseline",0,"BASELINE",3,1,19558,"Delayed Word Recall","ACITM03",3,1,1,null,null,"Y","Y","","<=1",1,0,null,1,"DAYS",5003],[116,"CDISCPILOT01","701","701","01-701-1028",19558,19737,"Xanomeline High Dose",81,71,"65-80",2,"WHITE",1,"M","Y","Y","Y","Week 16",16,"WEEK 16",10,111,19668,"Delayed Word Recall","ACITM03",3,4,1,3,300,"","Y","","85-140",112,1,85,140,"DAYS",5033],[117,"CDISCPILOT01","701","701","01-701-1028",19558,19737,"Xanomeline High Dose",81,71,"65-80",2,"WHITE",1,"M","Y","Y","Y","Week 24",24,"WEEK 24",12,172,19729,"Delayed Word Recall","ACITM03",3,1,1,0,0,"","Y","",">140",168,4,141,null,"DAYS",5048],[118,"CDISCPILOT01","701","701","01-701-1028",19558,19737,"Xanomeline High Dose",81,71,"65-80",2,"WHITE",1,"M","Y","Y","Y","Week 8",8,"WEEK 8",8,54,19611,"Delayed Word Recall","ACITM03",3,0,1,-1,-100,"","Y","","2-84",56,2,2,84,"DAYS",5018],[119,"CDISCPILOT01","701","701","01-701-1028",19558,19737,"Xanomeline High Dose",81,71,"65-80",2,"WHITE",1,"M","Y","Y","Y","Baseline",0,"BASELINE",3,1,19558,"Commands","ACITM04",4,0,0,null,null,"Y","Y","","<=1",1,0,null,1,"DAYS",5004],[120,"CDISCPILOT01","701","701","01-701-1028",19558,19737,"Xanomeline High Dose",81,71,"65-80",2,"WHITE",1,"M","Y","Y","Y","Week 16",16,"WEEK 16",10,111,19668,"Commands","ACITM04",4,0,0,0,null,"","Y","","85-140",112,1,85,140,"DAYS",5034],[121,"CDISCPILOT01","701","701","01-701-1028",19558,19737,"Xanomeline High Dose",81,71,"65-80",2,"WHITE",1,"M","Y","Y","Y","Week 24",24,"WEEK 24",12,172,19729,"Commands","ACITM04",4,0,0,0,null,"","Y","",">140",168,4,141,null,"DAYS",5049],[122,"CDISCPILOT01","701","701","01-701-1028",19558,19737,"Xanomeline High Dose",81,71,"65-80",2,"WHITE",1,"M","Y","Y","Y","Week 8",8,"WEEK 8",8,54,19611,"Commands","ACITM04",4,0,0,0,null,"","Y","","2-84",56,2,2,84,"DAYS",5019],[123,"CDISCPILOT01","701","701","01-701-1028",19558,19737,"Xanomeline High Dose",81,71,"65-80",2,"WHITE",1,"M","Y","Y","Y","Baseline",0,"BASELINE",3,1,19558,"Constructional Praxis","ACITM05",5,0,0,null,null,"Y","Y","","<=1",1,0,null,1,"DAYS",5005],[124,"CDISCPILOT01","701","701","01-701-1028",19558,19737,"Xanomeline High Dose",81,71,"65-80",2,"WHITE",1,"M","Y","Y","Y","Week 16",16,"WEEK 16",10,111,19668,"Constructional Praxis","ACITM05",5,0,0,0,null,"","Y","","85-140",112,1,85,140,"DAYS",5035],[125,"CDISCPILOT01","701","701","01-701-1028",19558,19737,"Xanomeline High Dose",81,71,"65-80",2,"WHITE",1,"M","Y","Y","Y","Week 24",24,"WEEK 24",12,172,19729,"Constructional Praxis","ACITM05",5,0,0,0,null,"","Y","",">140",168,4,141,null,"DAYS",5050],[126,"CDISCPILOT01","701","701","01-701-1028",19558,19737,"Xanomeline High Dose",81,71,"65-80",2,"WHITE",1,"M","Y","Y","Y","Week 8",8,"WEEK 8",8,54,19611,"Constructional Praxis","ACITM05",5,0,0,0,null,"","Y","","2-84",56,2,2,84,"DAYS",5020],[127,"CDISCPILOT01","701","701","01-701-1028",19558,19737,"Xanomeline High Dose",81,71,"65-80",2,"WHITE",1,"M","Y","Y","Y","Baseline",0,"BASELINE",3,1,19558,"Ideational Praxis","ACITM06",6,0,0,null,null,"Y","Y","","<=1",1,0,null,1,"DAYS",5006],[128,"CDISCPILOT01","701","701","01-701-1028",19558,19737,"Xanomeline High Dose",81,71,"65-80",2,"WHITE",1,"M","Y","Y","Y","Week 16",16,"WEEK 16",10,111,19668,"Ideational Praxis","ACITM06",6,0,0,0,null,"","Y","","85-140",112,1,85,140,"DAYS",5036],[129,"CDISCPILOT01","701","701","01-701-1028",19558,19737,"Xanomeline High Dose",81,71,"65-80",2,"WHITE",1,"M","Y","Y","Y","Week 24",24,"WEEK 24",12,172,19729,"Ideational Praxis","ACITM06",6,0,0,0,null,"","Y","",">140",168,4,141,null,"DAYS",5051],[130,"CDISCPILOT01","701","701","01-701-1028",19558,19737,"Xanomeline High Dose",81,71,"65-80",2,"WHITE",1,"M","Y","Y","Y","Week 8",8,"WEEK 8",8,54,19611,"Ideational Praxis","ACITM06",6,0,0,0,null,"","Y","","2-84",56,2,2,84,"DAYS",5021],[131,"CDISCPILOT01","701","701","01-701-1028",19558,19737,"Xanomeline High Dose",81,71,"65-80",2,"WHITE",1,"M","Y","Y","Y","Baseline",0,"BASELINE",3,1,19558,"Orientation","ACITM07",7,0,0,null,null,"Y","Y","","<=1",1,0,null,1,"DAYS",5007],[132,"CDISCPILOT01","701","701","01-701-1028",19558,19737,"Xanomeline High Dose",81,71,"65-80",2,"WHITE",1,"M","Y","Y","Y","Week 16",16,"WEEK 16",10,111,19668,"Orientation","ACITM07",7,0,0,0,null,"","Y","","85-140",112,1,85,140,"DAYS",5037],[133,"CDISCPILOT01","701","701","01-701-1028",19558,19737,"Xanomeline High Dose",81,71,"65-80",2,"WHITE",1,"M","Y","Y","Y","Week 24",24,"WEEK 24",12,172,19729,"Orientation","ACITM07",7,0,0,0,null,"","Y","",">140",168,4,141,null,"DAYS",5052],[134,"CDISCPILOT01","701","701","01-701-1028",19558,19737,"Xanomeline High Dose",81,71,"65-80",2,"WHITE",1,"M","Y","Y","Y","Week 8",8,"WEEK 8",8,54,19611,"Orientation","ACITM07",7,0,0,0,null,"","Y","","2-84",56,2,2,84,"DAYS",5022],[135,"CDISCPILOT01","701","701","01-701-1028",19558,19737,"Xanomeline High Dose",81,71,"65-80",2,"WHITE",1,"M","Y","Y","Y","Baseline",0,"BASELINE",3,1,19558,"Word Recognition","ACITM08",8,2,2,null,null,"Y","Y","","<=1",1,0,null,1,"DAYS",5008],[136,"CDISCPILOT01","701","701","01-701-1028",19558,19737,"Xanomeline High Dose",81,71,"65-80",2,"WHITE",1,"M","Y","Y","Y","Week 16",16,"WEEK 16",10,111,19668,"Word Recognition","ACITM08",8,1,2,-1,-50,"","Y","","85-140",112,1,85,140,"DAYS",5038],[137,"CDISCPILOT01","701","701","01-701-1028",19558,19737,"Xanomeline High Dose",81,71,"65-80",2,"WHITE",1,"M","Y","Y","Y","Week 24",24,"WEEK 24",12,172,19729,"Word Recognition","ACITM08",8,1,2,-1,-50,"","Y","",">140",168,4,141,null,"DAYS",5053],[138,"CDISCPILOT01","701","701","01-701-1028",19558,19737,"Xanomeline High Dose",81,71,"65-80",2,"WHITE",1,"M","Y","Y","Y","Week 8",8,"WEEK 8",8,54,19611,"Word Recognition","ACITM08",8,1,2,-1,-50,"","Y","","2-84",56,2,2,84,"DAYS",5023],[139,"CDISCPILOT01","701","701","01-701-1028",19558,19737,"Xanomeline High Dose",81,71,"65-80",2,"WHITE",1,"M","Y","Y","Y","Baseline",0,"BASELINE",3,1,19558,"Attention/Visual Search Task","ACITM09",9,24,24,null,null,"Y","Y","","<=1",1,0,null,1,"DAYS",5009],[140,"CDISCPILOT01","701","701","01-701-1028",19558,19737,"Xanomeline High Dose",81,71,"65-80",2,"WHITE",1,"M","Y","Y","Y","Week 16",16,"WEEK 16",10,111,19668,"Attention/Visual Search Task","ACITM09",9,34,24,10,41.6666666667,"","Y","","85-140",112,1,85,140,"DAYS",5039],[141,"CDISCPILOT01","701","701","01-701-1028",19558,19737,"Xanomeline High Dose",81,71,"65-80",2,"WHITE",1,"M","Y","Y","Y","Week 24",24,"WEEK 24",12,172,19729,"Attention/Visual Search Task","ACITM09",9,26,24,2,8.33333333333,"","Y","",">140",168,4,141,null,"DAYS",5054],[142,"CDISCPILOT01","701","701","01-701-1028",19558,19737,"Xanomeline High Dose",81,71,"65-80",2,"WHITE",1,"M","Y","Y","Y","Week 8",8,"WEEK 8",8,54,19611,"Attention/Visual Search Task","ACITM09",9,25,24,1,4.16666666667,"","Y","","2-84",56,2,2,84,"DAYS",5024],[143,"CDISCPILOT01","701","701","01-701-1028",19558,19737,"Xanomeline High Dose",81,71,"65-80",2,"WHITE",1,"M","Y","Y","Y","Baseline",0,"BASELINE",3,1,19558,"Maze Solution","ACITM10",10,4,4,null,null,"Y","Y","","<=1",1,0,null,1,"DAYS",5010],[144,"CDISCPILOT01","701","701","01-701-1028",19558,19737,"Xanomeline High Dose",81,71,"65-80",2,"WHITE",1,"M","Y","Y","Y","Week 16",16,"WEEK 16",10,111,19668,"Maze Solution","ACITM10",10,5,4,1,25,"","Y","","85-140",112,1,85,140,"DAYS",5040],[145,"CDISCPILOT01","701","701","01-701-1028",19558,19737,"Xanomeline High Dose",81,71,"65-80",2,"WHITE",1,"M","Y","Y","Y","Week 24",24,"WEEK 24",12,172,19729,"Maze Solution","ACITM10",10,5,4,1,25,"","Y","",">140",168,4,141,null,"DAYS",5055],[146,"CDISCPILOT01","701","701","01-701-1028",19558,19737,"Xanomeline High Dose",81,71,"65-80",2,"WHITE",1,"M","Y","Y","Y","Week 8",8,"WEEK 8",8,54,19611,"Maze Solution","ACITM10",10,5,4,1,25,"","Y","","2-84",56,2,2,84,"DAYS",5025],[147,"CDISCPILOT01","701","701","01-701-1028",19558,19737,"Xanomeline High Dose",81,71,"65-80",2,"WHITE",1,"M","Y","Y","Y","Baseline",0,"BASELINE",3,1,19558,"Spoken Language Ability","ACITM11",11,0,0,null,null,"Y","Y","","<=1",1,0,null,1,"DAYS",5011],[148,"CDISCPILOT01","701","701","01-701-1028",19558,19737,"Xanomeline High Dose",81,71,"65-80",2,"WHITE",1,"M","Y","Y","Y","Week 16",16,"WEEK 16",10,111,19668,"Spoken Language Ability","ACITM11",11,0,0,0,null,"","Y","","85-140",112,1,85,140,"DAYS",5041],[149,"CDISCPILOT01","701","701","01-701-1028",19558,19737,"Xanomeline High Dose",81,71,"65-80",2,"WHITE",1,"M","Y","Y","Y","Week 24",24,"WEEK 24",12,172,19729,"Spoken Language Ability","ACITM11",11,0,0,0,null,"","Y","",">140",168,4,141,null,"DAYS",5056],[150,"CDISCPILOT01","701","701","01-701-1028",19558,19737,"Xanomeline High Dose",81,71,"65-80",2,"WHITE",1,"M","Y","Y","Y","Week 8",8,"WEEK 8",8,54,19611,"Spoken Language Ability","ACITM11",11,0,0,0,null,"","Y","","2-84",56,2,2,84,"DAYS",5026],[151,"CDISCPILOT01","701","701","01-701-1028",19558,19737,"Xanomeline High Dose",81,71,"65-80",2,"WHITE",1,"M","Y","Y","Y","Baseline",0,"BASELINE",3,1,19558,"Comprehension Of Spoken Language","ACITM12",12,0,0,null,null,"Y","Y","","<=1",1,0,null,1,"DAYS",5012],[152,"CDISCPILOT01","701","701","01-701-1028",19558,19737,"Xanomeline High Dose",81,71,"65-80",2,"WHITE",1,"M","Y","Y","Y","Week 16",16,"WEEK 16",10,111,19668,"Comprehension Of Spoken Language","ACITM12",12,0,0,0,null,"","Y","","85-140",112,1,85,140,"DAYS",5042],[153,"CDISCPILOT01","701","701","01-701-1028",19558,19737,"Xanomeline High Dose",81,71,"65-80",2,"WHITE",1,"M","Y","Y","Y","Week 24",24,"WEEK 24",12,172,19729,"Comprehension Of Spoken Language","ACITM12",12,0,0,0,null,"","Y","",">140",168,4,141,null,"DAYS",5057],[154,"CDISCPILOT01","701","701","01-701-1028",19558,19737,"Xanomeline High Dose",81,71,"65-80",2,"WHITE",1,"M","Y","Y","Y","Week 8",8,"WEEK 8",8,54,19611,"Comprehension Of Spoken Language","ACITM12",12,0,0,0,null,"","Y","","2-84",56,2,2,84,"DAYS",5027],[155,"CDISCPILOT01","701","701","01-701-1028",19558,19737,"Xanomeline High Dose",81,71,"65-80",2,"WHITE",1,"M","Y","Y","Y","Baseline",0,"BASELINE",3,1,19558,"Word Finding Difficulty In Spontaneous S","ACITM13",13,0,0,null,null,"Y","Y","","<=1",1,0,null,1,"DAYS",5013],[156,"CDISCPILOT01","701","701","01-701-1028",19558,19737,"Xanomeline High Dose",81,71,"65-80",2,"WHITE",1,"M","Y","Y","Y","Week 16",16,"WEEK 16",10,111,19668,"Word Finding Difficulty In Spontaneous S","ACITM13",13,0,0,0,null,"","Y","","85-140",112,1,85,140,"DAYS",5043],[157,"CDISCPILOT01","701","701","01-701-1028",19558,19737,"Xanomeline High Dose",81,71,"65-80",2,"WHITE",1,"M","Y","Y","Y","Week 24",24,"WEEK 24",12,172,19729,"Word Finding Difficulty In Spontaneous S","ACITM13",13,0,0,0,null,"","Y","",">140",168,4,141,null,"DAYS",5058],[158,"CDISCPILOT01","701","701","01-701-1028",19558,19737,"Xanomeline High Dose",81,71,"65-80",2,"WHITE",1,"M","Y","Y","Y","Week 8",8,"WEEK 8",8,54,19611,"Word Finding Difficulty In Spontaneous S","ACITM13",13,0,0,0,null,"","Y","","2-84",56,2,2,84,"DAYS",5028],[159,"CDISCPILOT01","701","701","01-701-1028",19558,19737,"Xanomeline High Dose",81,71,"65-80",2,"WHITE",1,"M","Y","Y","Y","Baseline",0,"BASELINE",3,1,19558,"Recall Of Test Instructions","ACITM14",14,0,0,null,null,"Y","Y","","<=1",1,0,null,1,"DAYS",5014],[160,"CDISCPILOT01","701","701","01-701-1028",19558,19737,"Xanomeline High Dose",81,71,"65-80",2,"WHITE",1,"M","Y","Y","Y","Week 16",16,"WEEK 16",10,111,19668,"Recall Of Test Instructions","ACITM14",14,0,0,0,null,"","Y","","85-140",112,1,85,140,"DAYS",5044],[161,"CDISCPILOT01","701","701","01-701-1028",19558,19737,"Xanomeline High Dose",81,71,"65-80",2,"WHITE",1,"M","Y","Y","Y","Week 24",24,"WEEK 24",12,172,19729,"Recall Of Test Instructions","ACITM14",14,0,0,0,null,"","Y","",">140",168,4,141,null,"DAYS",5059],[162,"CDISCPILOT01","701","701","01-701-1028",19558,19737,"Xanomeline High Dose",81,71,"65-80",2,"WHITE",1,"M","Y","Y","Y","Week 8",8,"WEEK 8",8,54,19611,"Recall Of Test Instructions","ACITM14",14,0,0,0,null,"","Y","","2-84",56,2,2,84,"DAYS",5029],[163,"CDISCPILOT01","701","701","01-701-1028",19558,19737,"Xanomeline High Dose",81,71,"65-80",2,"WHITE",1,"M","Y","Y","Y","Baseline",0,"BASELINE",3,1,19558,"Adas-Cog(11) Subscore","ACTOT",15,3,3,null,null,"Y","Y","","<=1",1,0,null,1,"DAYS",5015],[164,"CDISCPILOT01","701","701","01-701-1028",19558,19737,"Xanomeline High Dose",81,71,"65-80",2,"WHITE",1,"M","Y","Y","Y","Week 16",16,"WEEK 16",10,111,19668,"Adas-Cog(11) Subscore","ACTOT",15,4,3,1,33.3333333333,"","Y","","85-140",112,1,85,140,"DAYS",5045],[165,"CDISCPILOT01","701","701","01-701-1028",19558,19737,"Xanomeline High Dose",81,71,"65-80",2,"WHITE",1,"M","Y","Y","Y","Week 24",24,"WEEK 24",12,172,19729,"Adas-Cog(11) Subscore","ACTOT",15,3,3,0,0,"","Y","",">140",168,4,141,null,"DAYS",5060],[166,"CDISCPILOT01","701","701","01-701-1028",19558,19737,"Xanomeline High Dose",81,71,"65-80",2,"WHITE",1,"M","Y","Y","Y","Week 8",8,"WEEK 8",8,54,19611,"Adas-Cog(11) Subscore","ACTOT",15,2,3,-1,-33.3333333333,"","Y","","2-84",56,2,2,84,"DAYS",5030],[167,"CDISCPILOT01","701","701","01-701-1033",19800,19813,"Xanomeline Low Dose",54,74,"65-80",2,"WHITE",1,"M","Y","Y","N","Baseline",0,"BASELINE",3,1,19800,"Word Recall Task","ACITM01",1,5,5,null,null,"Y","Y","","<=1",1,0,null,1,"DAYS",5001],[168,"CDISCPILOT01","701","701","01-701-1033",19800,19813,"Xanomeline Low Dose",54,74,"65-80",2,"WHITE",1,"M","Y","Y","N","Week 24",24,"RETRIEVAL",201,182,19981,"Word Recall Task","ACITM01",1,6,5,1,20,"","Y","",">140",168,14,141,null,"DAYS",5031],[169,"CDISCPILOT01","701","701","01-701-1033",19800,19813,"Xanomeline Low Dose",54,74,"65-80",2,"WHITE",1,"M","Y","Y","N","Week 8",8,"WEEK 4",5,28,19827,"Word Recall Task","ACITM01",1,5,5,0,0,"","Y","","2-84",56,28,2,84,"DAYS",5016],[170,"CDISCPILOT01","701","701","01-701-1033",19800,19813,"Xanomeline Low Dose",54,74,"65-80",2,"WHITE",1,"M","Y","Y","N","Baseline",0,"BASELINE",3,1,19800,"Naming Objects And Fingers (Refer To 5 C","ACITM02",2,0,0,null,null,"Y","Y","","<=1",1,0,null,1,"DAYS",5002],[171,"CDISCPILOT01","701","701","01-701-1033",19800,19813,"Xanomeline Low Dose",54,74,"65-80",2,"WHITE",1,"M","Y","Y","N","Week 24",24,"RETRIEVAL",201,182,19981,"Naming Objects And Fingers (Refer To 5 C","ACITM02",2,0,0,0,null,"","Y","",">140",168,14,141,null,"DAYS",5032],[172,"CDISCPILOT01","701","701","01-701-1033",19800,19813,"Xanomeline Low Dose",54,74,"65-80",2,"WHITE",1,"M","Y","Y","N","Week 8",8,"WEEK 4",5,28,19827,"Naming Objects And Fingers (Refer To 5 C","ACITM02",2,0,0,0,null,"","Y","","2-84",56,28,2,84,"DAYS",5017],[173,"CDISCPILOT01","701","701","01-701-1033",19800,19813,"Xanomeline Low Dose",54,74,"65-80",2,"WHITE",1,"M","Y","Y","N","Baseline",0,"BASELINE",3,1,19800,"Delayed Word Recall","ACITM03",3,6,6,null,null,"Y","Y","","<=1",1,0,null,1,"DAYS",5003],[174,"CDISCPILOT01","701","701","01-701-1033",19800,19813,"Xanomeline Low Dose",54,74,"65-80",2,"WHITE",1,"M","Y","Y","N","Week 24",24,"RETRIEVAL",201,182,19981,"Delayed Word Recall","ACITM03",3,6,6,0,0,"","Y","",">140",168,14,141,null,"DAYS",5033],[175,"CDISCPILOT01","701","701","01-701-1033",19800,19813,"Xanomeline Low Dose",54,74,"65-80",2,"WHITE",1,"M","Y","Y","N","Week 8",8,"WEEK 4",5,28,19827,"Delayed Word Recall","ACITM03",3,3,6,-3,-50,"","Y","","2-84",56,28,2,84,"DAYS",5018],[176,"CDISCPILOT01","701","701","01-701-1033",19800,19813,"Xanomeline Low Dose",54,74,"65-80",2,"WHITE",1,"M","Y","Y","N","Baseline",0,"BASELINE",3,1,19800,"Commands","ACITM04",4,0,0,null,null,"Y","Y","","<=1",1,0,null,1,"DAYS",5004],[177,"CDISCPILOT01","701","701","01-701-1033",19800,19813,"Xanomeline Low Dose",54,74,"65-80",2,"WHITE",1,"M","Y","Y","N","Week 24",24,"RETRIEVAL",201,182,19981,"Commands","ACITM04",4,0,0,0,null,"","Y","",">140",168,14,141,null,"DAYS",5034],[178,"CDISCPILOT01","701","701","01-701-1033",19800,19813,"Xanomeline Low Dose",54,74,"65-80",2,"WHITE",1,"M","Y","Y","N","Week 8",8,"WEEK 4",5,28,19827,"Commands","ACITM04",4,0,0,0,null,"","Y","","2-84",56,28,2,84,"DAYS",5019],[179,"CDISCPILOT01","701","701","01-701-1033",19800,19813,"Xanomeline Low Dose",54,74,"65-80",2,"WHITE",1,"M","Y","Y","N","Baseline",0,"BASELINE",3,1,19800,"Constructional Praxis","ACITM05",5,1,1,null,null,"Y","Y","","<=1",1,0,null,1,"DAYS",5005],[180,"CDISCPILOT01","701","701","01-701-1033",19800,19813,"Xanomeline Low Dose",54,74,"65-80",2,"WHITE",1,"M","Y","Y","N","Week 24",24,"RETRIEVAL",201,182,19981,"Constructional Praxis","ACITM05",5,0,1,-1,-100,"","Y","",">140",168,14,141,null,"DAYS",5035],[181,"CDISCPILOT01","701","701","01-701-1033",19800,19813,"Xanomeline Low Dose",54,74,"65-80",2,"WHITE",1,"M","Y","Y","N","Week 8",8,"WEEK 4",5,28,19827,"Constructional Praxis","ACITM05",5,1,1,0,0,"","Y","","2-84",56,28,2,84,"DAYS",5020],[182,"CDISCPILOT01","701","701","01-701-1033",19800,19813,"Xanomeline Low Dose",54,74,"65-80",2,"WHITE",1,"M","Y","Y","N","Baseline",0,"BASELINE",3,1,19800,"Ideational Praxis","ACITM06",6,0,0,null,null,"Y","Y","","<=1",1,0,null,1,"DAYS",5006],[183,"CDISCPILOT01","701","701","01-701-1033",19800,19813,"Xanomeline Low Dose",54,74,"65-80",2,"WHITE",1,"M","Y","Y","N","Week 24",24,"RETRIEVAL",201,182,19981,"Ideational Praxis","ACITM06",6,0,0,0,null,"","Y","",">140",168,14,141,null,"DAYS",5036],[184,"CDISCPILOT01","701","701","01-701-1033",19800,19813,"Xanomeline Low Dose",54,74,"65-80",2,"WHITE",1,"M","Y","Y","N","Week 8",8,"WEEK 4",5,28,19827,"Ideational Praxis","ACITM06",6,0,0,0,null,"","Y","","2-84",56,28,2,84,"DAYS",5021],[185,"CDISCPILOT01","701","701","01-701-1033",19800,19813,"Xanomeline Low Dose",54,74,"65-80",2,"WHITE",1,"M","Y","Y","N","Baseline",0,"BASELINE",3,1,19800,"Orientation","ACITM07",7,0,0,null,null,"Y","Y","","<=1",1,0,null,1,"DAYS",5007],[186,"CDISCPILOT01","701","701","01-701-1033",19800,19813,"Xanomeline Low Dose",54,74,"65-80",2,"WHITE",1,"M","Y","Y","N","Week 24",24,"RETRIEVAL",201,182,19981,"Orientation","ACITM07",7,0,0,0,null,"","Y","",">140",168,14,141,null,"DAYS",5037],[187,"CDISCPILOT01","701","701","01-701-1033",19800,19813,"Xanomeline Low Dose",54,74,"65-80",2,"WHITE",1,"M","Y","Y","N","Week 8",8,"WEEK 4",5,28,19827,"Orientation","ACITM07",7,0,0,0,null,"","Y","","2-84",56,28,2,84,"DAYS",5022],[188,"CDISCPILOT01","701","701","01-701-1033",19800,19813,"Xanomeline Low Dose",54,74,"65-80",2,"WHITE",1,"M","Y","Y","N","Baseline",0,"BASELINE",3,1,19800,"Word Recognition","ACITM08",8,1,1,null,null,"Y","Y","","<=1",1,0,null,1,"DAYS",5008],[189,"CDISCPILOT01","701","701","01-701-1033",19800,19813,"Xanomeline Low Dose",54,74,"65-80",2,"WHITE",1,"M","Y","Y","N","Week 24",24,"RETRIEVAL",201,182,19981,"Word Recognition","ACITM08",8,1,1,0,0,"","Y","",">140",168,14,141,null,"DAYS",5038],[190,"CDISCPILOT01","701","701","01-701-1033",19800,19813,"Xanomeline Low Dose",54,74,"65-80",2,"WHITE",1,"M","Y","Y","N","Week 8",8,"WEEK 4",5,28,19827,"Word Recognition","ACITM08",8,2,1,1,100,"","Y","","2-84",56,28,2,84,"DAYS",5023],[191,"CDISCPILOT01","701","701","01-701-1033",19800,19813,"Xanomeline Low Dose",54,74,"65-80",2,"WHITE",1,"M","Y","Y","N","Baseline",0,"BASELINE",3,1,19800,"Attention/Visual Search Task","ACITM09",9,30,30,null,null,"Y","Y","","<=1",1,0,null,1,"DAYS",5009],[192,"CDISCPILOT01","701","701","01-701-1033",19800,19813,"Xanomeline Low Dose",54,74,"65-80",2,"WHITE",1,"M","Y","Y","N","Week 24",24,"RETRIEVAL",201,182,19981,"Attention/Visual Search Task","ACITM09",9,27,30,-3,-10,"","Y","",">140",168,14,141,null,"DAYS",5039],[193,"CDISCPILOT01","701","701","01-701-1033",19800,19813,"Xanomeline Low Dose",54,74,"65-80",2,"WHITE",1,"M","Y","Y","N","Week 8",8,"WEEK 4",5,28,19827,"Attention/Visual Search Task","ACITM09",9,24,30,-6,-20,"","Y","","2-84",56,28,2,84,"DAYS",5024],[194,"CDISCPILOT01","701","701","01-701-1033",19800,19813,"Xanomeline Low Dose",54,74,"65-80",2,"WHITE",1,"M","Y","Y","N","Baseline",0,"BASELINE",3,1,19800,"Maze Solution","ACITM10",10,7,7,null,null,"Y","Y","","<=1",1,0,null,1,"DAYS",5010],[195,"CDISCPILOT01","701","701","01-701-1033",19800,19813,"Xanomeline Low Dose",54,74,"65-80",2,"WHITE",1,"M","Y","Y","N","Week 24",24,"RETRIEVAL",201,182,19981,"Maze Solution","ACITM10",10,4,7,-3,-42.8571428571,"","Y","",">140",168,14,141,null,"DAYS",5040],[196,"CDISCPILOT01","701","701","01-701-1033",19800,19813,"Xanomeline Low Dose",54,74,"65-80",2,"WHITE",1,"M","Y","Y","N","Week 8",8,"WEEK 4",5,28,19827,"Maze Solution","ACITM10",10,6,7,-1,-14.2857142857,"","Y","","2-84",56,28,2,84,"DAYS",5025],[197,"CDISCPILOT01","701","701","01-701-1033",19800,19813,"Xanomeline Low Dose",54,74,"65-80",2,"WHITE",1,"M","Y","Y","N","Baseline",0,"BASELINE",3,1,19800,"Spoken Language Ability","ACITM11",11,0,0,null,null,"Y","Y","","<=1",1,0,null,1,"DAYS",5011],[198,"CDISCPILOT01","701","701","01-701-1033",19800,19813,"Xanomeline Low Dose",54,74,"65-80",2,"WHITE",1,"M","Y","Y","N","Week 24",24,"RETRIEVAL",201,182,19981,"Spoken Language Ability","ACITM11",11,0,0,0,null,"","Y","",">140",168,14,141,null,"DAYS",5041],[199,"CDISCPILOT01","701","701","01-701-1033",19800,19813,"Xanomeline Low Dose",54,74,"65-80",2,"WHITE",1,"M","Y","Y","N","Week 8",8,"WEEK 4",5,28,19827,"Spoken Language Ability","ACITM11",11,0,0,0,null,"","Y","","2-84",56,28,2,84,"DAYS",5026],[200,"CDISCPILOT01","701","701","01-701-1033",19800,19813,"Xanomeline Low Dose",54,74,"65-80",2,"WHITE",1,"M","Y","Y","N","Baseline",0,"BASELINE",3,1,19800,"Comprehension Of Spoken Language","ACITM12",12,0,0,null,null,"Y","Y","","<=1",1,0,null,1,"DAYS",5012],[201,"CDISCPILOT01","701","701","01-701-1033",19800,19813,"Xanomeline Low Dose",54,74,"65-80",2,"WHITE",1,"M","Y","Y","N","Week 24",24,"RETRIEVAL",201,182,19981,"Comprehension Of Spoken Language","ACITM12",12,0,0,0,null,"","Y","",">140",168,14,141,null,"DAYS",5042],[202,"CDISCPILOT01","701","701","01-701-1033",19800,19813,"Xanomeline Low Dose",54,74,"65-80",2,"WHITE",1,"M","Y","Y","N","Week 8",8,"WEEK 4",5,28,19827,"Comprehension Of Spoken Language","ACITM12",12,0,0,0,null,"","Y","","2-84",56,28,2,84,"DAYS",5027],[203,"CDISCPILOT01","701","701","01-701-1033",19800,19813,"Xanomeline Low Dose",54,74,"65-80",2,"WHITE",1,"M","Y","Y","N","Baseline",0,"BASELINE",3,1,19800,"Word Finding Difficulty In Spontaneous S","ACITM13",13,0,0,null,null,"Y","Y","","<=1",1,0,null,1,"DAYS",5013],[204,"CDISCPILOT01","701","701","01-701-1033",19800,19813,"Xanomeline Low Dose",54,74,"65-80",2,"WHITE",1,"M","Y","Y","N","Week 24",24,"RETRIEVAL",201,182,19981,"Word Finding Difficulty In Spontaneous S","ACITM13",13,0,0,0,null,"","Y","",">140",168,14,141,null,"DAYS",5043],[205,"CDISCPILOT01","701","701","01-701-1033",19800,19813,"Xanomeline Low Dose",54,74,"65-80",2,"WHITE",1,"M","Y","Y","N","Week 8",8,"WEEK 4",5,28,19827,"Word Finding Difficulty In Spontaneous S","ACITM13",13,0,0,0,null,"","Y","","2-84",56,28,2,84,"DAYS",5028],[206,"CDISCPILOT01","701","701","01-701-1033",19800,19813,"Xanomeline Low Dose",54,74,"65-80",2,"WHITE",1,"M","Y","Y","N","Baseline",0,"BASELINE",3,1,19800,"Recall Of Test Instructions","ACITM14",14,0,0,null,null,"Y","Y","","<=1",1,0,null,1,"DAYS",5014],[207,"CDISCPILOT01","701","701","01-701-1033",19800,19813,"Xanomeline Low Dose",54,74,"65-80",2,"WHITE",1,"M","Y","Y","N","Week 24",24,"RETRIEVAL",201,182,19981,"Recall Of Test Instructions","ACITM14",14,0,0,0,null,"","Y","",">140",168,14,141,null,"DAYS",5044],[208,"CDISCPILOT01","701","701","01-701-1033",19800,19813,"Xanomeline Low Dose",54,74,"65-80",2,"WHITE",1,"M","Y","Y","N","Week 8",8,"WEEK 4",5,28,19827,"Recall Of Test Instructions","ACITM14",14,0,0,0,null,"","Y","","2-84",56,28,2,84,"DAYS",5029],[209,"CDISCPILOT01","701","701","01-701-1033",19800,19813,"Xanomeline Low Dose",54,74,"65-80",2,"WHITE",1,"M","Y","Y","N","Baseline",0,"BASELINE",3,1,19800,"Adas-Cog(11) Subscore","ACTOT",15,7,7,null,null,"Y","Y","","<=1",1,0,null,1,"DAYS",5015],[210,"CDISCPILOT01","701","701","01-701-1033",19800,19813,"Xanomeline Low Dose",54,74,"65-80",2,"WHITE",1,"M","Y","Y","N","Week 16",16,"WEEK 4",5,28,19827,"Adas-Cog(11) Subscore","ACTOT",15,8,7,1,14.2857142857,"","Y","LOCF","85-140",112,84,85,140,"DAYS",5030],[211,"CDISCPILOT01","701","701","01-701-1033",19800,19813,"Xanomeline Low Dose",54,74,"65-80",2,"WHITE",1,"M","Y","Y","N","Week 24",24,"RETRIEVAL",201,182,19981,"Adas-Cog(11) Subscore","ACTOT",15,7,7,0,0,"","Y","",">140",168,14,141,null,"DAYS",5045],[212,"CDISCPILOT01","701","701","01-701-1033",19800,19813,"Xanomeline Low Dose",54,74,"65-80",2,"WHITE",1,"M","Y","Y","N","Week 8",8,"WEEK 4",5,28,19827,"Adas-Cog(11) Subscore","ACTOT",15,8,7,1,14.2857142857,"","Y","","2-84",56,28,2,84,"DAYS",5030],[213,"CDISCPILOT01","701","701","01-701-1034",19905,20087,"Xanomeline High Dose",81,77,"65-80",2,"WHITE",1,"F","Y","Y","Y","Baseline",0,"BASELINE",3,1,19905,"Word Recall Task","ACITM01",1,5,5,null,null,"Y","Y","","<=1",1,0,null,1,"DAYS",5001],[214,"CDISCPILOT01","701","701","01-701-1034",19905,20087,"Xanomeline High Dose",81,77,"65-80",2,"WHITE",1,"F","Y","Y","Y","Week 16",16,"WEEK 16",10,113,20017,"Word Recall Task","ACITM01",1,6,5,1,20,"","Y","","85-140",112,1,85,140,"DAYS",5031],[215,"CDISCPILOT01","701","701","01-701-1034",19905,20087,"Xanomeline High Dose",81,77,"65-80",2,"WHITE",1,"F","Y","Y","Y","Week 24",24,"WEEK 24",12,170,20074,"Word Recall Task","ACITM01",1,6,5,1,20,"","Y","",">140",168,2,141,null,"DAYS",5046],[216,"CDISCPILOT01","701","701","01-701-1034",19905,20087,"Xanomeline High Dose",81,77,"65-80",2,"WHITE",1,"F","Y","Y","Y","Week 8",8,"WEEK 8",8,57,19961,"Word Recall Task","ACITM01",1,5,5,0,0,"","Y","","2-84",56,1,2,84,"DAYS",5016],[217,"CDISCPILOT01","701","701","01-701-1034",19905,20087,"Xanomeline High Dose",81,77,"65-80",2,"WHITE",1,"F","Y","Y","Y","Baseline",0,"BASELINE",3,1,19905,"Naming Objects And Fingers (Refer To 5 C","ACITM02",2,0,0,null,null,"Y","Y","","<=1",1,0,null,1,"DAYS",5002],[218,"CDISCPILOT01","701","701","01-701-1034",19905,20087,"Xanomeline High Dose",81,77,"65-80",2,"WHITE",1,"F","Y","Y","Y","Week 16",16,"WEEK 16",10,113,20017,"Naming Objects And Fingers (Refer To 5 C","ACITM02",2,1,0,1,null,"","Y","","85-140",112,1,85,140,"DAYS",5032],[219,"CDISCPILOT01","701","701","01-701-1034",19905,20087,"Xanomeline High Dose",81,77,"65-80",2,"WHITE",1,"F","Y","Y","Y","Week 24",24,"WEEK 24",12,170,20074,"Naming Objects And Fingers (Refer To 5 C","ACITM02",2,1,0,1,null,"","Y","",">140",168,2,141,null,"DAYS",5047],[220,"CDISCPILOT01","701","701","01-701-1034",19905,20087,"Xanomeline High Dose",81,77,"65-80",2,"WHITE",1,"F","Y","Y","Y","Week 8",8,"WEEK 8",8,57,19961,"Naming Objects And Fingers (Refer To 5 C","ACITM02",2,1,0,1,null,"","Y","","2-84",56,1,2,84,"DAYS",5017],[221,"CDISCPILOT01","701","701","01-701-1034",19905,20087,"Xanomeline High Dose",81,77,"65-80",2,"WHITE",1,"F","Y","Y","Y","Baseline",0,"BASELINE",3,1,19905,"Delayed Word Recall","ACITM03",3,9,9,null,null,"Y","Y","","<=1",1,0,null,1,"DAYS",5003],[222,"CDISCPILOT01","701","701","01-701-1034",19905,20087,"Xanomeline High Dose",81,77,"65-80",2,"WHITE",1,"F","Y","Y","Y","Week 16",16,"WEEK 16",10,113,20017,"Delayed Word Recall","ACITM03",3,10,9,1,11.1111111111,"","Y","","85-140",112,1,85,140,"DAYS",5033],[223,"CDISCPILOT01","701","701","01-701-1034",19905,20087,"Xanomeline High Dose",81,77,"65-80",2,"WHITE",1,"F","Y","Y","Y","Week 24",24,"WEEK 24",12,170,20074,"Delayed Word Recall","ACITM03",3,10,9,1,11.1111111111,"","Y","",">140",168,2,141,null,"DAYS",5048],[224,"CDISCPILOT01","701","701","01-701-1034",19905,20087,"Xanomeline High Dose",81,77,"65-80",2,"WHITE",1,"F","Y","Y","Y","Week 8",8,"WEEK 8",8,57,19961,"Delayed Word Recall","ACITM03",3,7,9,-2,-22.2222222222,"","Y","","2-84",56,1,2,84,"DAYS",5018],[225,"CDISCPILOT01","701","701","01-701-1034",19905,20087,"Xanomeline High Dose",81,77,"65-80",2,"WHITE",1,"F","Y","Y","Y","Baseline",0,"BASELINE",3,1,19905,"Commands","ACITM04",4,0,0,null,null,"Y","Y","","<=1",1,0,null,1,"DAYS",5004],[226,"CDISCPILOT01","701","701","01-701-1034",19905,20087,"Xanomeline High Dose",81,77,"65-80",2,"WHITE",1,"F","Y","Y","Y","Week 16",16,"WEEK 16",10,113,20017,"Commands","ACITM04",4,0,0,0,null,"","Y","","85-140",112,1,85,140,"DAYS",5034],[227,"CDISCPILOT01","701","701","01-701-1034",19905,20087,"Xanomeline High Dose",81,77,"65-80",2,"WHITE",1,"F","Y","Y","Y","Week 24",24,"WEEK 24",12,170,20074,"Commands","ACITM04",4,0,0,0,null,"","Y","",">140",168,2,141,null,"DAYS",5049],[228,"CDISCPILOT01","701","701","01-701-1034",19905,20087,"Xanomeline High Dose",81,77,"65-80",2,"WHITE",1,"F","Y","Y","Y","Week 8",8,"WEEK 8",8,57,19961,"Commands","ACITM04",4,0,0,0,null,"","Y","","2-84",56,1,2,84,"DAYS",5019],[229,"CDISCPILOT01","701","701","01-701-1034",19905,20087,"Xanomeline High Dose",81,77,"65-80",2,"WHITE",1,"F","Y","Y","Y","Baseline",0,"BASELINE",3,1,19905,"Constructional Praxis","ACITM05",5,2,2,null,null,"Y","Y","","<=1",1,0,null,1,"DAYS",5005],[230,"CDISCPILOT01","701","701","01-701-1034",19905,20087,"Xanomeline High Dose",81,77,"65-80",2,"WHITE",1,"F","Y","Y","Y","Week 16",16,"WEEK 16",10,113,20017,"Constructional Praxis","ACITM05",5,3,2,1,50,"","Y","","85-140",112,1,85,140,"DAYS",5035],[231,"CDISCPILOT01","701","701","01-701-1034",19905,20087,"Xanomeline High Dose",81,77,"65-80",2,"WHITE",1,"F","Y","Y","Y","Week 24",24,"WEEK 24",12,170,20074,"Constructional Praxis","ACITM05",5,2,2,0,0,"","Y","",">140",168,2,141,null,"DAYS",5050],[232,"CDISCPILOT01","701","701","01-701-1034",19905,20087,"Xanomeline High Dose",81,77,"65-80",2,"WHITE",1,"F","Y","Y","Y","Week 8",8,"WEEK 8",8,57,19961,"Constructional Praxis","ACITM05",5,1,2,-1,-50,"","Y","","2-84",56,1,2,84,"DAYS",5020],[233,"CDISCPILOT01","701","701","01-701-1034",19905,20087,"Xanomeline High Dose",81,77,"65-80",2,"WHITE",1,"F","Y","Y","Y","Baseline",0,"BASELINE",3,1,19905,"Ideational Praxis","ACITM06",6,1,1,null,null,"Y","Y","","<=1",1,0,null,1,"DAYS",5006],[234,"CDISCPILOT01","701","701","01-701-1034",19905,20087,"Xanomeline High Dose",81,77,"65-80",2,"WHITE",1,"F","Y","Y","Y","Week 16",16,"WEEK 16",10,113,20017,"Ideational Praxis","ACITM06",6,0,1,-1,-100,"","Y","","85-140",112,1,85,140,"DAYS",5036],[235,"CDISCPILOT01","701","701","01-701-1034",19905,20087,"Xanomeline High Dose",81,77,"65-80",2,"WHITE",1,"F","Y","Y","Y","Week 24",24,"WEEK 24",12,170,20074,"Ideational Praxis","ACITM06",6,0,1,-1,-100,"","Y","",">140",168,2,141,null,"DAYS",5051],[236,"CDISCPILOT01","701","701","01-701-1034",19905,20087,"Xanomeline High Dose",81,77,"65-80",2,"WHITE",1,"F","Y","Y","Y","Week 8",8,"WEEK 8",8,57,19961,"Ideational Praxis","ACITM06",6,0,1,-1,-100,"","Y","","2-84",56,1,2,84,"DAYS",5021],[237,"CDISCPILOT01","701","701","01-701-1034",19905,20087,"Xanomeline High Dose",81,77,"65-80",2,"WHITE",1,"F","Y","Y","Y","Baseline",0,"BASELINE",3,1,19905,"Orientation","ACITM07",7,0,0,null,null,"Y","Y","","<=1",1,0,null,1,"DAYS",5007],[238,"CDISCPILOT01","701","701","01-701-1034",19905,20087,"Xanomeline High Dose",81,77,"65-80",2,"WHITE",1,"F","Y","Y","Y","Week 16",16,"WEEK 16",10,113,20017,"Orientation","ACITM07",7,0,0,0,null,"","Y","","85-140",112,1,85,140,"DAYS",5037],[239,"CDISCPILOT01","701","701","01-701-1034",19905,20087,"Xanomeline High Dose",81,77,"65-80",2,"WHITE",1,"F","Y","Y","Y","Week 24",24,"WEEK 24",12,170,20074,"Orientation","ACITM07",7,0,0,0,null,"","Y","",">140",168,2,141,null,"DAYS",5052],[240,"CDISCPILOT01","701","701","01-701-1034",19905,20087,"Xanomeline High Dose",81,77,"65-80",2,"WHITE",1,"F","Y","Y","Y","Week 8",8,"WEEK 8",8,57,19961,"Orientation","ACITM07",7,0,0,0,null,"","Y","","2-84",56,1,2,84,"DAYS",5022],[241,"CDISCPILOT01","701","701","01-701-1034",19905,20087,"Xanomeline High Dose",81,77,"65-80",2,"WHITE",1,"F","Y","Y","Y","Baseline",0,"BASELINE",3,1,19905,"Word Recognition","ACITM08",8,3,3,null,null,"Y","Y","","<=1",1,0,null,1,"DAYS",5008],[242,"CDISCPILOT01","701","701","01-701-1034",19905,20087,"Xanomeline High Dose",81,77,"65-80",2,"WHITE",1,"F","Y","Y","Y","Week 16",16,"WEEK 16",10,113,20017,"Word Recognition","ACITM08",8,4,3,1,33.3333333333,"","Y","","85-140",112,1,85,140,"DAYS",5038],[243,"CDISCPILOT01","701","701","01-701-1034",19905,20087,"Xanomeline High Dose",81,77,"65-80",2,"WHITE",1,"F","Y","Y","Y","Week 24",24,"WEEK 24",12,170,20074,"Word Recognition","ACITM08",8,2,3,-1,-33.3333333333,"","Y","",">140",168,2,141,null,"DAYS",5053],[244,"CDISCPILOT01","701","701","01-701-1034",19905,20087,"Xanomeline High Dose",81,77,"65-80",2,"WHITE",1,"F","Y","Y","Y","Week 8",8,"WEEK 8",8,57,19961,"Word Recognition","ACITM08",8,4,3,1,33.3333333333,"","Y","","2-84",56,1,2,84,"DAYS",5023],[245,"CDISCPILOT01","701","701","01-701-1034",19905,20087,"Xanomeline High Dose",81,77,"65-80",2,"WHITE",1,"F","Y","Y","Y","Baseline",0,"BASELINE",3,1,19905,"Attention/Visual Search Task","ACITM09",9,20,20,null,null,"Y","Y","","<=1",1,0,null,1,"DAYS",5009],[246,"CDISCPILOT01","701","701","01-701-1034",19905,20087,"Xanomeline High Dose",81,77,"65-80",2,"WHITE",1,"F","Y","Y","Y","Week 16",16,"WEEK 16",10,113,20017,"Attention/Visual Search Task","ACITM09",9,27,20,7,35,"","Y","","85-140",112,1,85,140,"DAYS",5039],[247,"CDISCPILOT01","701","701","01-701-1034",19905,20087,"Xanomeline High Dose",81,77,"65-80",2,"WHITE",1,"F","Y","Y","Y","Week 24",24,"WEEK 24",12,170,20074,"Attention/Visual Search Task","ACITM09",9,31,20,11,55,"","Y","",">140",168,2,141,null,"DAYS",5054],[248,"CDISCPILOT01","701","701","01-701-1034",19905,20087,"Xanomeline High Dose",81,77,"65-80",2,"WHITE",1,"F","Y","Y","Y","Week 8",8,"WEEK 8",8,57,19961,"Attention/Visual Search Task","ACITM09",9,20,20,0,0,"","Y","","2-84",56,1,2,84,"DAYS",5024],[249,"CDISCPILOT01","701","701","01-701-1034",19905,20087,"Xanomeline High Dose",81,77,"65-80",2,"WHITE",1,"F","Y","Y","Y","Baseline",0,"BASELINE",3,1,19905,"Maze Solution","ACITM10",10,5,5,null,null,"Y","Y","","<=1",1,0,null,1,"DAYS",5010],[250,"CDISCPILOT01","701","701","01-701-1034",19905,20087,"Xanomeline High Dose",81,77,"65-80",2,"WHITE",1,"F","Y","Y","Y","Week 16",16,"WEEK 16",10,113,20017,"Maze Solution","ACITM10",10,5,5,0,0,"","Y","","85-140",112,1,85,140,"DAYS",5040],[251,"CDISCPILOT01","701","701","01-701-1034",19905,20087,"Xanomeline High Dose",81,77,"65-80",2,"WHITE",1,"F","Y","Y","Y","Week 24",24,"WEEK 24",12,170,20074,"Maze Solution","ACITM10",10,7,5,2,40,"","Y","",">140",168,2,141,null,"DAYS",5055],[252,"CDISCPILOT01","701","701","01-701-1034",19905,20087,"Xanomeline High Dose",81,77,"65-80",2,"WHITE",1,"F","Y","Y","Y","Week 8",8,"WEEK 8",8,57,19961,"Maze Solution","ACITM10",10,4,5,-1,-20,"","Y","","2-84",56,1,2,84,"DAYS",5025],[253,"CDISCPILOT01","701","701","01-701-1034",19905,20087,"Xanomeline High Dose",81,77,"65-80",2,"WHITE",1,"F","Y","Y","Y","Baseline",0,"BASELINE",3,1,19905,"Spoken Language Ability","ACITM11",11,0,0,null,null,"Y","Y","","<=1",1,0,null,1,"DAYS",5011],[254,"CDISCPILOT01","701","701","01-701-1034",19905,20087,"Xanomeline High Dose",81,77,"65-80",2,"WHITE",1,"F","Y","Y","Y","Week 16",16,"WEEK 16",10,113,20017,"Spoken Language Ability","ACITM11",11,0,0,0,null,"","Y","","85-140",112,1,85,140,"DAYS",5041],[255,"CDISCPILOT01","701","701","01-701-1034",19905,20087,"Xanomeline High Dose",81,77,"65-80",2,"WHITE",1,"F","Y","Y","Y","Week 24",24,"WEEK 24",12,170,20074,"Spoken Language Ability","ACITM11",11,0,0,0,null,"","Y","",">140",168,2,141,null,"DAYS",5056],[256,"CDISCPILOT01","701","701","01-701-1034",19905,20087,"Xanomeline High Dose",81,77,"65-80",2,"WHITE",1,"F","Y","Y","Y","Week 8",8,"WEEK 8",8,57,19961,"Spoken Language Ability","ACITM11",11,0,0,0,null,"","Y","","2-84",56,1,2,84,"DAYS",5026],[257,"CDISCPILOT01","701","701","01-701-1034",19905,20087,"Xanomeline High Dose",81,77,"65-80",2,"WHITE",1,"F","Y","Y","Y","Baseline",0,"BASELINE",3,1,19905,"Comprehension Of Spoken Language","ACITM12",12,0,0,null,null,"Y","Y","","<=1",1,0,null,1,"DAYS",5012],[258,"CDISCPILOT01","701","701","01-701-1034",19905,20087,"Xanomeline High Dose",81,77,"65-80",2,"WHITE",1,"F","Y","Y","Y","Week 16",16,"WEEK 16",10,113,20017,"Comprehension Of Spoken Language","ACITM12",12,0,0,0,null,"","Y","","85-140",112,1,85,140,"DAYS",5042],[259,"CDISCPILOT01","701","701","01-701-1034",19905,20087,"Xanomeline High Dose",81,77,"65-80",2,"WHITE",1,"F","Y","Y","Y","Week 24",24,"WEEK 24",12,170,20074,"Comprehension Of Spoken Language","ACITM12",12,0,0,0,null,"","Y","",">140",168,2,141,null,"DAYS",5057],[260,"CDISCPILOT01","701","701","01-701-1034",19905,20087,"Xanomeline High Dose",81,77,"65-80",2,"WHITE",1,"F","Y","Y","Y","Week 8",8,"WEEK 8",8,57,19961,"Comprehension Of Spoken Language","ACITM12",12,0,0,0,null,"","Y","","2-84",56,1,2,84,"DAYS",5027],[261,"CDISCPILOT01","701","701","01-701-1034",19905,20087,"Xanomeline High Dose",81,77,"65-80",2,"WHITE",1,"F","Y","Y","Y","Baseline",0,"BASELINE",3,1,19905,"Word Finding Difficulty In Spontaneous S","ACITM13",13,0,0,null,null,"Y","Y","","<=1",1,0,null,1,"DAYS",5013],[262,"CDISCPILOT01","701","701","01-701-1034",19905,20087,"Xanomeline High Dose",81,77,"65-80",2,"WHITE",1,"F","Y","Y","Y","Week 16",16,"WEEK 16",10,113,20017,"Word Finding Difficulty In Spontaneous S","ACITM13",13,0,0,0,null,"","Y","","85-140",112,1,85,140,"DAYS",5043],[263,"CDISCPILOT01","701","701","01-701-1034",19905,20087,"Xanomeline High Dose",81,77,"65-80",2,"WHITE",1,"F","Y","Y","Y","Week 24",24,"WEEK 24",12,170,20074,"Word Finding Difficulty In Spontaneous S","ACITM13",13,0,0,0,null,"","Y","",">140",168,2,141,null,"DAYS",5058],[264,"CDISCPILOT01","701","701","01-701-1034",19905,20087,"Xanomeline High Dose",81,77,"65-80",2,"WHITE",1,"F","Y","Y","Y","Week 8",8,"WEEK 8",8,57,19961,"Word Finding Difficulty In Spontaneous S","ACITM13",13,1,0,1,null,"","Y","","2-84",56,1,2,84,"DAYS",5028],[265,"CDISCPILOT01","701","701","01-701-1034",19905,20087,"Xanomeline High Dose",81,77,"65-80",2,"WHITE",1,"F","Y","Y","Y","Baseline",0,"BASELINE",3,1,19905,"Recall Of Test Instructions","ACITM14",14,0,0,null,null,"Y","Y","","<=1",1,0,null,1,"DAYS",5014],[266,"CDISCPILOT01","701","701","01-701-1034",19905,20087,"Xanomeline High Dose",81,77,"65-80",2,"WHITE",1,"F","Y","Y","Y","Week 16",16,"WEEK 16",10,113,20017,"Recall Of Test Instructions","ACITM14",14,0,0,0,null,"","Y","","85-140",112,1,85,140,"DAYS",5044],[267,"CDISCPILOT01","701","701","01-701-1034",19905,20087,"Xanomeline High Dose",81,77,"65-80",2,"WHITE",1,"F","Y","Y","Y","Week 24",24,"WEEK 24",12,170,20074,"Recall Of Test Instructions","ACITM14",14,0,0,0,null,"","Y","",">140",168,2,141,null,"DAYS",5059],[268,"CDISCPILOT01","701","701","01-701-1034",19905,20087,"Xanomeline High Dose",81,77,"65-80",2,"WHITE",1,"F","Y","Y","Y","Week 8",8,"WEEK 8",8,57,19961,"Recall Of Test Instructions","ACITM14",14,0,0,0,null,"","Y","","2-84",56,1,2,84,"DAYS",5029],[269,"CDISCPILOT01","701","701","01-701-1034",19905,20087,"Xanomeline High Dose",81,77,"65-80",2,"WHITE",1,"F","Y","Y","Y","Baseline",0,"BASELINE",3,1,19905,"Adas-Cog(11) Subscore","ACTOT",15,11,11,null,null,"Y","Y","","<=1",1,0,null,1,"DAYS",5015],[270,"CDISCPILOT01","701","701","01-701-1034",19905,20087,"Xanomeline High Dose",81,77,"65-80",2,"WHITE",1,"F","Y","Y","Y","Week 16",16,"WEEK 16",10,113,20017,"Adas-Cog(11) Subscore","ACTOT",15,14,11,3,27.2727272727,"","Y","","85-140",112,1,85,140,"DAYS",5045],[271,"CDISCPILOT01","701","701","01-701-1034",19905,20087,"Xanomeline High Dose",81,77,"65-80",2,"WHITE",1,"F","Y","Y","Y","Week 24",24,"WEEK 24",12,170,20074,"Adas-Cog(11) Subscore","ACTOT",15,11,11,0,0,"","Y","",">140",168,2,141,null,"DAYS",5060],[272,"CDISCPILOT01","701","701","01-701-1034",19905,20087,"Xanomeline High Dose",81,77,"65-80",2,"WHITE",1,"F","Y","Y","Y","Week 8",8,"WEEK 8",8,57,19961,"Adas-Cog(11) Subscore","ACTOT",15,12,11,1,9.09090909091,"","Y","","2-84",56,1,2,84,"DAYS",5030],[273,"CDISCPILOT01","701","701","01-701-1047",19401,19426,"Placebo",0,85,">80",3,"WHITE",1,"F","Y","Y","N","Baseline",0,"BASELINE",3,1,19401,"Word Recall Task","ACITM01",1,6,6,null,null,"Y","Y","","<=1",1,0,null,1,"DAYS",5001],[274,"CDISCPILOT01","701","701","01-701-1047",19401,19426,"Placebo",0,85,">80",3,"WHITE",1,"F","Y","Y","N","Week 24",24,"RETRIEVAL",201,167,19567,"Word Recall Task","ACITM01",1,7,6,1,16.6666666667,"","Y","",">140",168,1,141,null,"DAYS",5031],[275,"CDISCPILOT01","701","701","01-701-1047",19401,19426,"Placebo",0,85,">80",3,"WHITE",1,"F","Y","Y","N","Week 8",8,"AMBUL ECG REMOVAL",6,46,19446,"Word Recall Task","ACITM01",1,7,6,1,16.6666666667,"","Y","","2-84",56,10,2,84,"DAYS",5016],[276,"CDISCPILOT01","701","701","01-701-1047",19401,19426,"Placebo",0,85,">80",3,"WHITE",1,"F","Y","Y","N","Baseline",0,"BASELINE",3,1,19401,"Naming Objects And Fingers (Refer To 5 C","ACITM02",2,0,0,null,null,"Y","Y","","<=1",1,0,null,1,"DAYS",5002],[277,"CDISCPILOT01","701","701","01-701-1047",19401,19426,"Placebo",0,85,">80",3,"WHITE",1,"F","Y","Y","N","Week 24",24,"RETRIEVAL",201,167,19567,"Naming Objects And Fingers (Refer To 5 C","ACITM02",2,0,0,0,null,"","Y","",">140",168,1,141,null,"DAYS",5032],[278,"CDISCPILOT01","701","701","01-701-1047",19401,19426,"Placebo",0,85,">80",3,"WHITE",1,"F","Y","Y","N","Week 8",8,"AMBUL ECG REMOVAL",6,46,19446,"Naming Objects And Fingers (Refer To 5 C","ACITM02",2,0,0,0,null,"","Y","","2-84",56,10,2,84,"DAYS",5017],[279,"CDISCPILOT01","701","701","01-701-1047",19401,19426,"Placebo",0,85,">80",3,"WHITE",1,"F","Y","Y","N","Baseline",0,"BASELINE",3,1,19401,"Delayed Word Recall","ACITM03",3,10,10,null,null,"Y","Y","","<=1",1,0,null,1,"DAYS",5003],[280,"CDISCPILOT01","701","701","01-701-1047",19401,19426,"Placebo",0,85,">80",3,"WHITE",1,"F","Y","Y","N","Week 24",24,"RETRIEVAL",201,167,19567,"Delayed Word Recall","ACITM03",3,10,10,0,0,"","Y","",">140",168,1,141,null,"DAYS",5033],[281,"CDISCPILOT01","701","701","01-701-1047",19401,19426,"Placebo",0,85,">80",3,"WHITE",1,"F","Y","Y","N","Week 8",8,"AMBUL ECG REMOVAL",6,46,19446,"Delayed Word Recall","ACITM03",3,10,10,0,0,"","Y","","2-84",56,10,2,84,"DAYS",5018],[282,"CDISCPILOT01","701","701","01-701-1047",19401,19426,"Placebo",0,85,">80",3,"WHITE",1,"F","Y","Y","N","Baseline",0,"BASELINE",3,1,19401,"Commands","ACITM04",4,0,0,null,null,"Y","Y","","<=1",1,0,null,1,"DAYS",5004],[283,"CDISCPILOT01","701","701","01-701-1047",19401,19426,"Placebo",0,85,">80",3,"WHITE",1,"F","Y","Y","N","Week 24",24,"RETRIEVAL",201,167,19567,"Commands","ACITM04",4,0,0,0,null,"","Y","",">140",168,1,141,null,"DAYS",5034],[284,"CDISCPILOT01","701","701","01-701-1047",19401,19426,"Placebo",0,85,">80",3,"WHITE",1,"F","Y","Y","N","Week 8",8,"AMBUL ECG REMOVAL",6,46,19446,"Commands","ACITM04",4,0,0,0,null,"","Y","","2-84",56,10,2,84,"DAYS",5019],[285,"CDISCPILOT01","701","701","01-701-1047",19401,19426,"Placebo",0,85,">80",3,"WHITE",1,"F","Y","Y","N","Baseline",0,"BASELINE",3,1,19401,"Constructional Praxis","ACITM05",5,1,1,null,null,"Y","Y","","<=1",1,0,null,1,"DAYS",5005],[286,"CDISCPILOT01","701","701","01-701-1047",19401,19426,"Placebo",0,85,">80",3,"WHITE",1,"F","Y","Y","N","Week 24",24,"RETRIEVAL",201,167,19567,"Constructional Praxis","ACITM05",5,1,1,0,0,"","Y","",">140",168,1,141,null,"DAYS",5035],[287,"CDISCPILOT01","701","701","01-701-1047",19401,19426,"Placebo",0,85,">80",3,"WHITE",1,"F","Y","Y","N","Week 8",8,"AMBUL ECG REMOVAL",6,46,19446,"Constructional Praxis","ACITM05",5,0,1,-1,-100,"","Y","","2-84",56,10,2,84,"DAYS",5020],[288,"CDISCPILOT01","701","701","01-701-1047",19401,19426,"Placebo",0,85,">80",3,"WHITE",1,"F","Y","Y","N","Baseline",0,"BASELINE",3,1,19401,"Ideational Praxis","ACITM06",6,0,0,null,null,"Y","Y","","<=1",1,0,null,1,"DAYS",5006],[289,"CDISCPILOT01","701","701","01-701-1047",19401,19426,"Placebo",0,85,">80",3,"WHITE",1,"F","Y","Y","N","Week 24",24,"RETRIEVAL",201,167,19567,"Ideational Praxis","ACITM06",6,0,0,0,null,"","Y","",">140",168,1,141,null,"DAYS",5036],[290,"CDISCPILOT01","701","701","01-701-1047",19401,19426,"Placebo",0,85,">80",3,"WHITE",1,"F","Y","Y","N","Week 8",8,"AMBUL ECG REMOVAL",6,46,19446,"Ideational Praxis","ACITM06",6,1,0,1,null,"","Y","","2-84",56,10,2,84,"DAYS",5021],[291,"CDISCPILOT01","701","701","01-701-1047",19401,19426,"Placebo",0,85,">80",3,"WHITE",1,"F","Y","Y","N","Baseline",0,"BASELINE",3,1,19401,"Orientation","ACITM07",7,0,0,null,null,"Y","Y","","<=1",1,0,null,1,"DAYS",5007],[292,"CDISCPILOT01","701","701","01-701-1047",19401,19426,"Placebo",0,85,">80",3,"WHITE",1,"F","Y","Y","N","Week 24",24,"RETRIEVAL",201,167,19567,"Orientation","ACITM07",7,2,0,2,null,"","Y","",">140",168,1,141,null,"DAYS",5037],[293,"CDISCPILOT01","701","701","01-701-1047",19401,19426,"Placebo",0,85,">80",3,"WHITE",1,"F","Y","Y","N","Week 8",8,"AMBUL ECG REMOVAL",6,46,19446,"Orientation","ACITM07",7,1,0,1,null,"","Y","","2-84",56,10,2,84,"DAYS",5022],[294,"CDISCPILOT01","701","701","01-701-1047",19401,19426,"Placebo",0,85,">80",3,"WHITE",1,"F","Y","Y","N","Baseline",0,"BASELINE",3,1,19401,"Word Recognition","ACITM08",8,3,3,null,null,"Y","Y","","<=1",1,0,null,1,"DAYS",5008],[295,"CDISCPILOT01","701","701","01-701-1047",19401,19426,"Placebo",0,85,">80",3,"WHITE",1,"F","Y","Y","N","Week 24",24,"RETRIEVAL",201,167,19567,"Word Recognition","ACITM08",8,3,3,0,0,"","Y","",">140",168,1,141,null,"DAYS",5038],[296,"CDISCPILOT01","701","701","01-701-1047",19401,19426,"Placebo",0,85,">80",3,"WHITE",1,"F","Y","Y","N","Week 8",8,"AMBUL ECG REMOVAL",6,46,19446,"Word Recognition","ACITM08",8,5,3,2,66.6666666667,"","Y","","2-84",56,10,2,84,"DAYS",5023],[297,"CDISCPILOT01","701","701","01-701-1047",19401,19426,"Placebo",0,85,">80",3,"WHITE",1,"F","Y","Y","N","Baseline",0,"BASELINE",3,1,19401,"Attention/Visual Search Task","ACITM09",9,26,26,null,null,"Y","Y","","<=1",1,0,null,1,"DAYS",5009],[298,"CDISCPILOT01","701","701","01-701-1047",19401,19426,"Placebo",0,85,">80",3,"WHITE",1,"F","Y","Y","N","Week 24",24,"RETRIEVAL",201,167,19567,"Attention/Visual Search Task","ACITM09",9,33,26,7,26.9230769231,"","Y","",">140",168,1,141,null,"DAYS",5039],[299,"CDISCPILOT01","701","701","01-701-1047",19401,19426,"Placebo",0,85,">80",3,"WHITE",1,"F","Y","Y","N","Week 8",8,"AMBUL ECG REMOVAL",6,46,19446,"Attention/Visual Search Task","ACITM09",9,37,26,11,42.3076923077,"","Y","","2-84",56,10,2,84,"DAYS",5024],[300,"CDISCPILOT01","701","701","01-701-1047",19401,19426,"Placebo",0,85,">80",3,"WHITE",1,"F","Y","Y","N","Baseline",0,"BASELINE",3,1,19401,"Maze Solution","ACITM10",10,7,7,null,null,"Y","Y","","<=1",1,0,null,1,"DAYS",5010],[301,"CDISCPILOT01","701","701","01-701-1047",19401,19426,"Placebo",0,85,">80",3,"WHITE",1,"F","Y","Y","N","Week 24",24,"RETRIEVAL",201,167,19567,"Maze Solution","ACITM10",10,5,7,-2,-28.5714285714,"","Y","",">140",168,1,141,null,"DAYS",5040],[302,"CDISCPILOT01","701","701","01-701-1047",19401,19426,"Placebo",0,85,">80",3,"WHITE",1,"F","Y","Y","N","Week 8",8,"AMBUL ECG REMOVAL",6,46,19446,"Maze Solution","ACITM10",10,5,7,-2,-28.5714285714,"","Y","","2-84",56,10,2,84,"DAYS",5025],[303,"CDISCPILOT01","701","701","01-701-1047",19401,19426,"Placebo",0,85,">80",3,"WHITE",1,"F","Y","Y","N","Baseline",0,"BASELINE",3,1,19401,"Spoken Language Ability","ACITM11",11,0,0,null,null,"Y","Y","","<=1",1,0,null,1,"DAYS",5011],[304,"CDISCPILOT01","701","701","01-701-1047",19401,19426,"Placebo",0,85,">80",3,"WHITE",1,"F","Y","Y","N","Week 24",24,"RETRIEVAL",201,167,19567,"Spoken Language Ability","ACITM11",11,1,0,1,null,"","Y","",">140",168,1,141,null,"DAYS",5041],[305,"CDISCPILOT01","701","701","01-701-1047",19401,19426,"Placebo",0,85,">80",3,"WHITE",1,"F","Y","Y","N","Week 8",8,"AMBUL ECG REMOVAL",6,46,19446,"Spoken Language Ability","ACITM11",11,0,0,0,null,"","Y","","2-84",56,10,2,84,"DAYS",5026],[306,"CDISCPILOT01","701","701","01-701-1047",19401,19426,"Placebo",0,85,">80",3,"WHITE",1,"F","Y","Y","N","Baseline",0,"BASELINE",3,1,19401,"Comprehension Of Spoken Language","ACITM12",12,0,0,null,null,"Y","Y","","<=1",1,0,null,1,"DAYS",5012],[307,"CDISCPILOT01","701","701","01-701-1047",19401,19426,"Placebo",0,85,">80",3,"WHITE",1,"F","Y","Y","N","Week 24",24,"RETRIEVAL",201,167,19567,"Comprehension Of Spoken Language","ACITM12",12,2,0,2,null,"","Y","",">140",168,1,141,null,"DAYS",5042],[308,"CDISCPILOT01","701","701","01-701-1047",19401,19426,"Placebo",0,85,">80",3,"WHITE",1,"F","Y","Y","N","Week 8",8,"AMBUL ECG REMOVAL",6,46,19446,"Comprehension Of Spoken Language","ACITM12",12,0,0,0,null,"","Y","","2-84",56,10,2,84,"DAYS",5027],[309,"CDISCPILOT01","701","701","01-701-1047",19401,19426,"Placebo",0,85,">80",3,"WHITE",1,"F","Y","Y","N","Baseline",0,"BASELINE",3,1,19401,"Word Finding Difficulty In Spontaneous S","ACITM13",13,0,0,null,null,"Y","Y","","<=1",1,0,null,1,"DAYS",5013],[310,"CDISCPILOT01","701","701","01-701-1047",19401,19426,"Placebo",0,85,">80",3,"WHITE",1,"F","Y","Y","N","Week 24",24,"RETRIEVAL",201,167,19567,"Word Finding Difficulty In Spontaneous S","ACITM13",13,1,0,1,null,"","Y","",">140",168,1,141,null,"DAYS",5043],[311,"CDISCPILOT01","701","701","01-701-1047",19401,19426,"Placebo",0,85,">80",3,"WHITE",1,"F","Y","Y","N","Week 8",8,"AMBUL ECG REMOVAL",6,46,19446,"Word Finding Difficulty In Spontaneous S","ACITM13",13,0,0,0,null,"","Y","","2-84",56,10,2,84,"DAYS",5028],[312,"CDISCPILOT01","701","701","01-701-1047",19401,19426,"Placebo",0,85,">80",3,"WHITE",1,"F","Y","Y","N","Baseline",0,"BASELINE",3,1,19401,"Recall Of Test Instructions","ACITM14",14,0,0,null,null,"Y","Y","","<=1",1,0,null,1,"DAYS",5014],[313,"CDISCPILOT01","701","701","01-701-1047",19401,19426,"Placebo",0,85,">80",3,"WHITE",1,"F","Y","Y","N","Week 24",24,"RETRIEVAL",201,167,19567,"Recall Of Test Instructions","ACITM14",14,2,0,2,null,"","Y","",">140",168,1,141,null,"DAYS",5044],[314,"CDISCPILOT01","701","701","01-701-1047",19401,19426,"Placebo",0,85,">80",3,"WHITE",1,"F","Y","Y","N","Week 8",8,"AMBUL ECG REMOVAL",6,46,19446,"Recall Of Test Instructions","ACITM14",14,0,0,0,null,"","Y","","2-84",56,10,2,84,"DAYS",5029],[315,"CDISCPILOT01","701","701","01-701-1047",19401,19426,"Placebo",0,85,">80",3,"WHITE",1,"F","Y","Y","N","Baseline",0,"BASELINE",3,1,19401,"Adas-Cog(11) Subscore","ACTOT",15,10,10,null,null,"Y","Y","","<=1",1,0,null,1,"DAYS",5015],[316,"CDISCPILOT01","701","701","01-701-1047",19401,19426,"Placebo",0,85,">80",3,"WHITE",1,"F","Y","Y","N","Week 16",16,"AMBUL ECG REMOVAL",6,46,19446,"Adas-Cog(11) Subscore","ACTOT",15,14,10,4,40,"","Y","LOCF","85-140",112,66,85,140,"DAYS",5030],[317,"CDISCPILOT01","701","701","01-701-1047",19401,19426,"Placebo",0,85,">80",3,"WHITE",1,"F","Y","Y","N","Week 24",24,"RETRIEVAL",201,167,19567,"Adas-Cog(11) Subscore","ACTOT",15,19,10,9,90,"","Y","",">140",168,1,141,null,"DAYS",5045],[318,"CDISCPILOT01","701","701","01-701-1047",19401,19426,"Placebo",0,85,">80",3,"WHITE",1,"F","Y","Y","N","Week 8",8,"AMBUL ECG REMOVAL",6,46,19446,"Adas-Cog(11) Subscore","ACTOT",15,14,10,4,40,"","Y","","2-84",56,10,2,84,"DAYS",5030],[319,"CDISCPILOT01","701","701","01-701-1097",19724,19913,"Xanomeline Low Dose",54,68,"65-80",2,"WHITE",1,"M","Y","Y","Y","Baseline",0,"BASELINE",3,1,19724,"Word Recall Task","ACITM01",1,10,10,null,null,"Y","Y","","<=1",1,0,null,1,"DAYS",5001],[320,"CDISCPILOT01","701","701","01-701-1097",19724,19913,"Xanomeline Low Dose",54,68,"65-80",2,"WHITE",1,"M","Y","Y","Y","Week 16",16,"WEEK 16",10,113,19836,"Word Recall Task","ACITM01",1,9,10,-1,-10,"","Y","","85-140",112,1,85,140,"DAYS",5031],[321,"CDISCPILOT01","701","701","01-701-1097",19724,19913,"Xanomeline Low Dose",54,68,"65-80",2,"WHITE",1,"M","Y","Y","Y","Week 24",24,"WEEK 24",12,169,19892,"Word Recall Task","ACITM01",1,9,10,-1,-10,"","Y","",">140",168,1,141,null,"DAYS",5046],[322,"CDISCPILOT01","701","701","01-701-1097",19724,19913,"Xanomeline Low Dose",54,68,"65-80",2,"WHITE",1,"M","Y","Y","Y","Week 8",8,"WEEK 8",8,57,19780,"Word Recall Task","ACITM01",1,9,10,-1,-10,"","Y","","2-84",56,1,2,84,"DAYS",5016],[323,"CDISCPILOT01","701","701","01-701-1097",19724,19913,"Xanomeline Low Dose",54,68,"65-80",2,"WHITE",1,"M","Y","Y","Y","Baseline",0,"BASELINE",3,1,19724,"Naming Objects And Fingers (Refer To 5 C","ACITM02",2,5,5,null,null,"Y","Y","","<=1",1,0,null,1,"DAYS",5002],[324,"CDISCPILOT01","701","701","01-701-1097",19724,19913,"Xanomeline Low Dose",54,68,"65-80",2,"WHITE",1,"M","Y","Y","Y","Week 16",16,"WEEK 16",10,113,19836,"Naming Objects And Fingers (Refer To 5 C","ACITM02",2,5,5,0,0,"","Y","","85-140",112,1,85,140,"DAYS",5032],[325,"CDISCPILOT01","701","701","01-701-1097",19724,19913,"Xanomeline Low Dose",54,68,"65-80",2,"WHITE",1,"M","Y","Y","Y","Week 24",24,"WEEK 24",12,169,19892,"Naming Objects And Fingers (Refer To 5 C","ACITM02",2,5,5,0,0,"","Y","",">140",168,1,141,null,"DAYS",5047],[326,"CDISCPILOT01","701","701","01-701-1097",19724,19913,"Xanomeline Low Dose",54,68,"65-80",2,"WHITE",1,"M","Y","Y","Y","Week 8",8,"WEEK 8",8,57,19780,"Naming Objects And Fingers (Refer To 5 C","ACITM02",2,5,5,0,0,"","Y","","2-84",56,1,2,84,"DAYS",5017],[327,"CDISCPILOT01","701","701","01-701-1097",19724,19913,"Xanomeline Low Dose",54,68,"65-80",2,"WHITE",1,"M","Y","Y","Y","Baseline",0,"BASELINE",3,1,19724,"Delayed Word Recall","ACITM03",3,10,10,null,null,"Y","Y","","<=1",1,0,null,1,"DAYS",5003],[328,"CDISCPILOT01","701","701","01-701-1097",19724,19913,"Xanomeline Low Dose",54,68,"65-80",2,"WHITE",1,"M","Y","Y","Y","Week 16",16,"WEEK 16",10,113,19836,"Delayed Word Recall","ACITM03",3,10,10,0,0,"","Y","","85-140",112,1,85,140,"DAYS",5033],[329,"CDISCPILOT01","701","701","01-701-1097",19724,19913,"Xanomeline Low Dose",54,68,"65-80",2,"WHITE",1,"M","Y","Y","Y","Week 24",24,"WEEK 24",12,169,19892,"Delayed Word Recall","ACITM03",3,10,10,0,0,"","Y","",">140",168,1,141,null,"DAYS",5048],[330,"CDISCPILOT01","701","701","01-701-1097",19724,19913,"Xanomeline Low Dose",54,68,"65-80",2,"WHITE",1,"M","Y","Y","Y","Week 8",8,"WEEK 8",8,57,19780,"Delayed Word Recall","ACITM03",3,10,10,0,0,"","Y","","2-84",56,1,2,84,"DAYS",5018],[331,"CDISCPILOT01","701","701","01-701-1097",19724,19913,"Xanomeline Low Dose",54,68,"65-80",2,"WHITE",1,"M","Y","Y","Y","Baseline",0,"BASELINE",3,1,19724,"Commands","ACITM04",4,3,3,null,null,"Y","Y","","<=1",1,0,null,1,"DAYS",5004],[332,"CDISCPILOT01","701","701","01-701-1097",19724,19913,"Xanomeline Low Dose",54,68,"65-80",2,"WHITE",1,"M","Y","Y","Y","Week 16",16,"WEEK 16",10,113,19836,"Commands","ACITM04",4,1,3,-2,-66.6666666667,"","Y","","85-140",112,1,85,140,"DAYS",5034],[333,"CDISCPILOT01","701","701","01-701-1097",19724,19913,"Xanomeline Low Dose",54,68,"65-80",2,"WHITE",1,"M","Y","Y","Y","Week 24",24,"WEEK 24",12,169,19892,"Commands","ACITM04",4,3,3,0,0,"","Y","",">140",168,1,141,null,"DAYS",5049],[334,"CDISCPILOT01","701","701","01-701-1097",19724,19913,"Xanomeline Low Dose",54,68,"65-80",2,"WHITE",1,"M","Y","Y","Y","Week 8",8,"WEEK 8",8,57,19780,"Commands","ACITM04",4,1,3,-2,-66.6666666667,"","Y","","2-84",56,1,2,84,"DAYS",5019],[335,"CDISCPILOT01","701","701","01-701-1097",19724,19913,"Xanomeline Low Dose",54,68,"65-80",2,"WHITE",1,"M","Y","Y","Y","Baseline",0,"BASELINE",3,1,19724,"Constructional Praxis","ACITM05",5,4,4,null,null,"Y","Y","","<=1",1,0,null,1,"DAYS",5005],[336,"CDISCPILOT01","701","701","01-701-1097",19724,19913,"Xanomeline Low Dose",54,68,"65-80",2,"WHITE",1,"M","Y","Y","Y","Week 16",16,"WEEK 16",10,113,19836,"Constructional Praxis","ACITM05",5,4,4,0,0,"","Y","","85-140",112,1,85,140,"DAYS",5035],[337,"CDISCPILOT01","701","701","01-701-1097",19724,19913,"Xanomeline Low Dose",54,68,"65-80",2,"WHITE",1,"M","Y","Y","Y","Week 24",24,"WEEK 24",12,169,19892,"Constructional Praxis","ACITM05",5,2,4,-2,-50,"","Y","",">140",168,1,141,null,"DAYS",5050],[338,"CDISCPILOT01","701","701","01-701-1097",19724,19913,"Xanomeline Low Dose",54,68,"65-80",2,"WHITE",1,"M","Y","Y","Y","Week 8",8,"WEEK 8",8,57,19780,"Constructional Praxis","ACITM05",5,3,4,-1,-25,"","Y","","2-84",56,1,2,84,"DAYS",5020],[339,"CDISCPILOT01","701","701","01-701-1097",19724,19913,"Xanomeline Low Dose",54,68,"65-80",2,"WHITE",1,"M","Y","Y","Y","Baseline",0,"BASELINE",3,1,19724,"Ideational Praxis","ACITM06",6,5,5,null,null,"Y","Y","","<=1",1,0,null,1,"DAYS",5006],[340,"CDISCPILOT01","701","701","01-701-1097",19724,19913,"Xanomeline Low Dose",54,68,"65-80",2,"WHITE",1,"M","Y","Y","Y","Week 16",16,"WEEK 16",10,113,19836,"Ideational Praxis","ACITM06",6,4,5,-1,-20,"","Y","","85-140",112,1,85,140,"DAYS",5036],[341,"CDISCPILOT01","701","701","01-701-1097",19724,19913,"Xanomeline Low Dose",54,68,"65-80",2,"WHITE",1,"M","Y","Y","Y","Week 24",24,"WEEK 24",12,169,19892,"Ideational Praxis","ACITM06",6,5,5,0,0,"","Y","",">140",168,1,141,null,"DAYS",5051],[342,"CDISCPILOT01","701","701","01-701-1097",19724,19913,"Xanomeline Low Dose",54,68,"65-80",2,"WHITE",1,"M","Y","Y","Y","Week 8",8,"WEEK 8",8,57,19780,"Ideational Praxis","ACITM06",6,4,5,-1,-20,"","Y","","2-84",56,1,2,84,"DAYS",5021],[343,"CDISCPILOT01","701","701","01-701-1097",19724,19913,"Xanomeline Low Dose",54,68,"65-80",2,"WHITE",1,"M","Y","Y","Y","Baseline",0,"BASELINE",3,1,19724,"Orientation","ACITM07",7,7,7,null,null,"Y","Y","","<=1",1,0,null,1,"DAYS",5007],[344,"CDISCPILOT01","701","701","01-701-1097",19724,19913,"Xanomeline Low Dose",54,68,"65-80",2,"WHITE",1,"M","Y","Y","Y","Week 16",16,"WEEK 16",10,113,19836,"Orientation","ACITM07",7,7,7,0,0,"","Y","","85-140",112,1,85,140,"DAYS",5037],[345,"CDISCPILOT01","701","701","01-701-1097",19724,19913,"Xanomeline Low Dose",54,68,"65-80",2,"WHITE",1,"M","Y","Y","Y","Week 24",24,"WEEK 24",12,169,19892,"Orientation","ACITM07",7,7,7,0,0,"","Y","",">140",168,1,141,null,"DAYS",5052],[346,"CDISCPILOT01","701","701","01-701-1097",19724,19913,"Xanomeline Low Dose",54,68,"65-80",2,"WHITE",1,"M","Y","Y","Y","Week 8",8,"WEEK 8",8,57,19780,"Orientation","ACITM07",7,7,7,0,0,"","Y","","2-84",56,1,2,84,"DAYS",5022],[347,"CDISCPILOT01","701","701","01-701-1097",19724,19913,"Xanomeline Low Dose",54,68,"65-80",2,"WHITE",1,"M","Y","Y","Y","Baseline",0,"BASELINE",3,1,19724,"Word Recognition","ACITM08",8,null,null,null,null,"Y","Y","","<=1",1,0,null,1,"DAYS",5008],[348,"CDISCPILOT01","701","701","01-701-1097",19724,19913,"Xanomeline Low Dose",54,68,"65-80",2,"WHITE",1,"M","Y","Y","Y","Week 16",16,"WEEK 16",10,113,19836,"Word Recognition","ACITM08",8,10,null,null,null,"","Y","","85-140",112,1,85,140,"DAYS",5038],[349,"CDISCPILOT01","701","701","01-701-1097",19724,19913,"Xanomeline Low Dose",54,68,"65-80",2,"WHITE",1,"M","Y","Y","Y","Week 24",24,"WEEK 24",12,169,19892,"Word Recognition","ACITM08",8,9,null,null,null,"","Y","",">140",168,1,141,null,"DAYS",5053],[350,"CDISCPILOT01","701","701","01-701-1097",19724,19913,"Xanomeline Low Dose",54,68,"65-80",2,"WHITE",1,"M","Y","Y","Y","Week 8",8,"WEEK 8",8,57,19780,"Word Recognition","ACITM08",8,12,null,null,null,"","Y","","2-84",56,1,2,84,"DAYS",5023],[351,"CDISCPILOT01","701","701","01-701-1097",19724,19913,"Xanomeline Low Dose",54,68,"65-80",2,"WHITE",1,"M","Y","Y","Y","Baseline",0,"BASELINE",3,1,19724,"Attention/Visual Search Task","ACITM09",9,0,0,null,null,"Y","Y","","<=1",1,0,null,1,"DAYS",5009],[352,"CDISCPILOT01","701","701","01-701-1097",19724,19913,"Xanomeline Low Dose",54,68,"65-80",2,"WHITE",1,"M","Y","Y","Y","Week 16",16,"WEEK 16",10,113,19836,"Attention/Visual Search Task","ACITM09",9,4,0,4,null,"","Y","","85-140",112,1,85,140,"DAYS",5039],[353,"CDISCPILOT01","701","701","01-701-1097",19724,19913,"Xanomeline Low Dose",54,68,"65-80",2,"WHITE",1,"M","Y","Y","Y","Week 24",24,"WEEK 24",12,169,19892,"Attention/Visual Search Task","ACITM09",9,5,0,5,null,"","Y","",">140",168,1,141,null,"DAYS",5054],[354,"CDISCPILOT01","701","701","01-701-1097",19724,19913,"Xanomeline Low Dose",54,68,"65-80",2,"WHITE",1,"M","Y","Y","Y","Week 8",8,"WEEK 8",8,57,19780,"Attention/Visual Search Task","ACITM09",9,5,0,5,null,"","Y","","2-84",56,1,2,84,"DAYS",5024],[355,"CDISCPILOT01","701","701","01-701-1097",19724,19913,"Xanomeline Low Dose",54,68,"65-80",2,"WHITE",1,"M","Y","Y","Y","Baseline",0,"BASELINE",3,1,19724,"Maze Solution","ACITM10",10,240,240,null,null,"Y","Y","","<=1",1,0,null,1,"DAYS",5010],[356,"CDISCPILOT01","701","701","01-701-1097",19724,19913,"Xanomeline Low Dose",54,68,"65-80",2,"WHITE",1,"M","Y","Y","Y","Week 16",16,"WEEK 16",10,113,19836,"Maze Solution","ACITM10",10,41,240,-199,-82.9166666667,"","Y","","85-140",112,1,85,140,"DAYS",5040],[357,"CDISCPILOT01","701","701","01-701-1097",19724,19913,"Xanomeline Low Dose",54,68,"65-80",2,"WHITE",1,"M","Y","Y","Y","Week 24",24,"WEEK 24",12,169,19892,"Maze Solution","ACITM10",10,11,240,-229,-95.4166666667,"","Y","",">140",168,1,141,null,"DAYS",5055],[358,"CDISCPILOT01","701","701","01-701-1097",19724,19913,"Xanomeline Low Dose",54,68,"65-80",2,"WHITE",1,"M","Y","Y","Y","Week 8",8,"WEEK 8",8,57,19780,"Maze Solution","ACITM10",10,240,240,0,0,"","Y","","2-84",56,1,2,84,"DAYS",5025],[359,"CDISCPILOT01","701","701","01-701-1097",19724,19913,"Xanomeline Low Dose",54,68,"65-80",2,"WHITE",1,"M","Y","Y","Y","Baseline",0,"BASELINE",3,1,19724,"Spoken Language Ability","ACITM11",11,3,3,null,null,"Y","Y","","<=1",1,0,null,1,"DAYS",5011],[360,"CDISCPILOT01","701","701","01-701-1097",19724,19913,"Xanomeline Low Dose",54,68,"65-80",2,"WHITE",1,"M","Y","Y","Y","Week 16",16,"WEEK 16",10,113,19836,"Spoken Language Ability","ACITM11",11,3,3,0,0,"","Y","","85-140",112,1,85,140,"DAYS",5041],[361,"CDISCPILOT01","701","701","01-701-1097",19724,19913,"Xanomeline Low Dose",54,68,"65-80",2,"WHITE",1,"M","Y","Y","Y","Week 24",24,"WEEK 24",12,169,19892,"Spoken Language Ability","ACITM11",11,2,3,-1,-33.3333333333,"","Y","",">140",168,1,141,null,"DAYS",5056],[362,"CDISCPILOT01","701","701","01-701-1097",19724,19913,"Xanomeline Low Dose",54,68,"65-80",2,"WHITE",1,"M","Y","Y","Y","Week 8",8,"WEEK 8",8,57,19780,"Spoken Language Ability","ACITM11",11,3,3,0,0,"","Y","","2-84",56,1,2,84,"DAYS",5026],[363,"CDISCPILOT01","701","701","01-701-1097",19724,19913,"Xanomeline Low Dose",54,68,"65-80",2,"WHITE",1,"M","Y","Y","Y","Baseline",0,"BASELINE",3,1,19724,"Comprehension Of Spoken Language","ACITM12",12,3,3,null,null,"Y","Y","","<=1",1,0,null,1,"DAYS",5012],[364,"CDISCPILOT01","701","701","01-701-1097",19724,19913,"Xanomeline Low Dose",54,68,"65-80",2,"WHITE",1,"M","Y","Y","Y","Week 16",16,"WEEK 16",10,113,19836,"Comprehension Of Spoken Language","ACITM12",12,2,3,-1,-33.3333333333,"","Y","","85-140",112,1,85,140,"DAYS",5042],[365,"CDISCPILOT01","701","701","01-701-1097",19724,19913,"Xanomeline Low Dose",54,68,"65-80",2,"WHITE",1,"M","Y","Y","Y","Week 24",24,"WEEK 24",12,169,19892,"Comprehension Of Spoken Language","ACITM12",12,3,3,0,0,"","Y","",">140",168,1,141,null,"DAYS",5057],[366,"CDISCPILOT01","701","701","01-701-1097",19724,19913,"Xanomeline Low Dose",54,68,"65-80",2,"WHITE",1,"M","Y","Y","Y","Week 8",8,"WEEK 8",8,57,19780,"Comprehension Of Spoken Language","ACITM12",12,2,3,-1,-33.3333333333,"","Y","","2-84",56,1,2,84,"DAYS",5027],[367,"CDISCPILOT01","701","701","01-701-1097",19724,19913,"Xanomeline Low Dose",54,68,"65-80",2,"WHITE",1,"M","Y","Y","Y","Baseline",0,"BASELINE",3,1,19724,"Word Finding Difficulty In Spontaneous S","ACITM13",13,4,4,null,null,"Y","Y","","<=1",1,0,null,1,"DAYS",5013],[368,"CDISCPILOT01","701","701","01-701-1097",19724,19913,"Xanomeline Low Dose",54,68,"65-80",2,"WHITE",1,"M","Y","Y","Y","Week 16",16,"WEEK 16",10,113,19836,"Word Finding Difficulty In Spontaneous S","ACITM13",13,2,4,-2,-50,"","Y","","85-140",112,1,85,140,"DAYS",5043],[369,"CDISCPILOT01","701","701","01-701-1097",19724,19913,"Xanomeline Low Dose",54,68,"65-80",2,"WHITE",1,"M","Y","Y","Y","Week 24",24,"WEEK 24",12,169,19892,"Word Finding Difficulty In Spontaneous S","ACITM13",13,2,4,-2,-50,"","Y","",">140",168,1,141,null,"DAYS",5058],[370,"CDISCPILOT01","701","701","01-701-1097",19724,19913,"Xanomeline Low Dose",54,68,"65-80",2,"WHITE",1,"M","Y","Y","Y","Week 8",8,"WEEK 8",8,57,19780,"Word Finding Difficulty In Spontaneous S","ACITM13",13,4,4,0,0,"","Y","","2-84",56,1,2,84,"DAYS",5028],[371,"CDISCPILOT01","701","701","01-701-1097",19724,19913,"Xanomeline Low Dose",54,68,"65-80",2,"WHITE",1,"M","Y","Y","Y","Baseline",0,"BASELINE",3,1,19724,"Recall Of Test Instructions","ACITM14",14,3,3,null,null,"Y","Y","","<=1",1,0,null,1,"DAYS",5014],[372,"CDISCPILOT01","701","701","01-701-1097",19724,19913,"Xanomeline Low Dose",54,68,"65-80",2,"WHITE",1,"M","Y","Y","Y","Week 16",16,"WEEK 16",10,113,19836,"Recall Of Test Instructions","ACITM14",14,2,3,-1,-33.3333333333,"","Y","","85-140",112,1,85,140,"DAYS",5044],[373,"CDISCPILOT01","701","701","01-701-1097",19724,19913,"Xanomeline Low Dose",54,68,"65-80",2,"WHITE",1,"M","Y","Y","Y","Week 24",24,"WEEK 24",12,169,19892,"Recall Of Test Instructions","ACITM14",14,4,3,1,33.3333333333,"","Y","",">140",168,1,141,null,"DAYS",5059],[374,"CDISCPILOT01","701","701","01-701-1097",19724,19913,"Xanomeline Low Dose",54,68,"65-80",2,"WHITE",1,"M","Y","Y","Y","Week 8",8,"WEEK 8",8,57,19780,"Recall Of Test Instructions","ACITM14",14,4,3,1,33.3333333333,"","Y","","2-84",56,1,2,84,"DAYS",5029],[375,"CDISCPILOT01","701","701","01-701-1097",19724,19913,"Xanomeline Low Dose",54,68,"65-80",2,"WHITE",1,"M","Y","Y","Y","Baseline",0,"BASELINE",3,1,19724,"Adas-Cog(11) Subscore","ACTOT",15,56.724137931,56.724137931,null,null,"Y","Y","","<=1",1,0,null,1,"DAYS",5015],[376,"CDISCPILOT01","701","701","01-701-1097",19724,19913,"Xanomeline Low Dose",54,68,"65-80",2,"WHITE",1,"M","Y","Y","Y","Week 16",16,"WEEK 16",10,113,19836,"Adas-Cog(11) Subscore","ACTOT",15,49,56.724137931,-7.72413793103,-13.6170212766,"","Y","","85-140",112,1,85,140,"DAYS",5045],[377,"CDISCPILOT01","701","701","01-701-1097",19724,19913,"Xanomeline Low Dose",54,68,"65-80",2,"WHITE",1,"M","Y","Y","Y","Week 24",24,"WEEK 24",12,169,19892,"Adas-Cog(11) Subscore","ACTOT",15,51,56.724137931,-5.72413793103,-10.0911854103,"","Y","",">140",168,1,141,null,"DAYS",5060],[378,"CDISCPILOT01","701","701","01-701-1097",19724,19913,"Xanomeline Low Dose",54,68,"65-80",2,"WHITE",1,"M","Y","Y","Y","Week 8",8,"WEEK 8",8,57,19780,"Adas-Cog(11) Subscore","ACTOT",15,54,56.724137931,-2.72413793103,-4.80243161094,"","Y","","2-84",56,1,2,84,"DAYS",5030],[379,"CDISCPILOT01","701","701","01-701-1111",19243,19252,"Xanomeline Low Dose",54,81,">80",3,"WHITE",1,"F","Y","Y","N","Baseline",0,"BASELINE",3,1,19243,"Word Recall Task","ACITM01",1,5,5,null,null,"Y","Y","","<=1",1,0,null,1,"DAYS",5001],[380,"CDISCPILOT01","701","701","01-701-1111",19243,19252,"Xanomeline Low Dose",54,81,">80",3,"WHITE",1,"F","Y","Y","N","Week 24",24,"RETRIEVAL",201,169,19411,"Word Recall Task","ACITM01",1,5,5,0,0,"","Y","",">140",168,1,141,null,"DAYS",5031],[381,"CDISCPILOT01","701","701","01-701-1111",19243,19252,"Xanomeline Low Dose",54,81,">80",3,"WHITE",1,"F","Y","Y","N","Week 8",8,"WEEK 2",4,11,19253,"Word Recall Task","ACITM01",1,4,5,-1,-20,"","Y","","2-84",56,45,2,84,"DAYS",5016],[382,"CDISCPILOT01","701","701","01-701-1111",19243,19252,"Xanomeline Low Dose",54,81,">80",3,"WHITE",1,"F","Y","Y","N","Baseline",0,"BASELINE",3,1,19243,"Naming Objects And Fingers (Refer To 5 C","ACITM02",2,0,0,null,null,"Y","Y","","<=1",1,0,null,1,"DAYS",5002],[383,"CDISCPILOT01","701","701","01-701-1111",19243,19252,"Xanomeline Low Dose",54,81,">80",3,"WHITE",1,"F","Y","Y","N","Week 24",24,"RETRIEVAL",201,169,19411,"Naming Objects And Fingers (Refer To 5 C","ACITM02",2,0,0,0,null,"","Y","",">140",168,1,141,null,"DAYS",5032],[384,"CDISCPILOT01","701","701","01-701-1111",19243,19252,"Xanomeline Low Dose",54,81,">80",3,"WHITE",1,"F","Y","Y","N","Week 8",8,"WEEK 2",4,11,19253,"Naming Objects And Fingers (Refer To 5 C","ACITM02",2,0,0,0,null,"","Y","","2-84",56,45,2,84,"DAYS",5017],[385,"CDISCPILOT01","701","701","01-701-1111",19243,19252,"Xanomeline Low Dose",54,81,">80",3,"WHITE",1,"F","Y","Y","N","Baseline",0,"BASELINE",3,1,19243,"Delayed Word Recall","ACITM03",3,6,6,null,null,"Y","Y","","<=1",1,0,null,1,"DAYS",5003],[386,"CDISCPILOT01","701","701","01-701-1111",19243,19252,"Xanomeline Low Dose",54,81,">80",3,"WHITE",1,"F","Y","Y","N","Week 24",24,"RETRIEVAL",201,169,19411,"Delayed Word Recall","ACITM03",3,5,6,-1,-16.6666666667,"","Y","",">140",168,1,141,null,"DAYS",5033],[387,"CDISCPILOT01","701","701","01-701-1111",19243,19252,"Xanomeline Low Dose",54,81,">80",3,"WHITE",1,"F","Y","Y","N","Week 8",8,"WEEK 2",4,11,19253,"Delayed Word Recall","ACITM03",3,4,6,-2,-33.3333333333,"","Y","","2-84",56,45,2,84,"DAYS",5018],[388,"CDISCPILOT01","701","701","01-701-1111",19243,19252,"Xanomeline Low Dose",54,81,">80",3,"WHITE",1,"F","Y","Y","N","Baseline",0,"BASELINE",3,1,19243,"Commands","ACITM04",4,0,0,null,null,"Y","Y","","<=1",1,0,null,1,"DAYS",5004],[389,"CDISCPILOT01","701","701","01-701-1111",19243,19252,"Xanomeline Low Dose",54,81,">80",3,"WHITE",1,"F","Y","Y","N","Week 24",24,"RETRIEVAL",201,169,19411,"Commands","ACITM04",4,0,0,0,null,"","Y","",">140",168,1,141,null,"DAYS",5034],[390,"CDISCPILOT01","701","701","01-701-1111",19243,19252,"Xanomeline Low Dose",54,81,">80",3,"WHITE",1,"F","Y","Y","N","Week 8",8,"WEEK 2",4,11,19253,"Commands","ACITM04",4,0,0,0,null,"","Y","","2-84",56,45,2,84,"DAYS",5019],[391,"CDISCPILOT01","701","701","01-701-1111",19243,19252,"Xanomeline Low Dose",54,81,">80",3,"WHITE",1,"F","Y","Y","N","Baseline",0,"BASELINE",3,1,19243,"Constructional Praxis","ACITM05",5,0,0,null,null,"Y","Y","","<=1",1,0,null,1,"DAYS",5005],[392,"CDISCPILOT01","701","701","01-701-1111",19243,19252,"Xanomeline Low Dose",54,81,">80",3,"WHITE",1,"F","Y","Y","N","Week 24",24,"RETRIEVAL",201,169,19411,"Constructional Praxis","ACITM05",5,0,0,0,null,"","Y","",">140",168,1,141,null,"DAYS",5035],[393,"CDISCPILOT01","701","701","01-701-1111",19243,19252,"Xanomeline Low Dose",54,81,">80",3,"WHITE",1,"F","Y","Y","N","Week 8",8,"WEEK 2",4,11,19253,"Constructional Praxis","ACITM05",5,0,0,0,null,"","Y","","2-84",56,45,2,84,"DAYS",5020],[394,"CDISCPILOT01","701","701","01-701-1111",19243,19252,"Xanomeline Low Dose",54,81,">80",3,"WHITE",1,"F","Y","Y","N","Baseline",0,"BASELINE",3,1,19243,"Ideational Praxis","ACITM06",6,1,1,null,null,"Y","Y","","<=1",1,0,null,1,"DAYS",5006],[395,"CDISCPILOT01","701","701","01-701-1111",19243,19252,"Xanomeline Low Dose",54,81,">80",3,"WHITE",1,"F","Y","Y","N","Week 24",24,"RETRIEVAL",201,169,19411,"Ideational Praxis","ACITM06",6,0,1,-1,-100,"","Y","",">140",168,1,141,null,"DAYS",5036],[396,"CDISCPILOT01","701","701","01-701-1111",19243,19252,"Xanomeline Low Dose",54,81,">80",3,"WHITE",1,"F","Y","Y","N","Week 8",8,"WEEK 2",4,11,19253,"Ideational Praxis","ACITM06",6,0,1,-1,-100,"","Y","","2-84",56,45,2,84,"DAYS",5021],[397,"CDISCPILOT01","701","701","01-701-1111",19243,19252,"Xanomeline Low Dose",54,81,">80",3,"WHITE",1,"F","Y","Y","N","Baseline",0,"BASELINE",3,1,19243,"Orientation","ACITM07",7,0,0,null,null,"Y","Y","","<=1",1,0,null,1,"DAYS",5007],[398,"CDISCPILOT01","701","701","01-701-1111",19243,19252,"Xanomeline Low Dose",54,81,">80",3,"WHITE",1,"F","Y","Y","N","Week 24",24,"RETRIEVAL",201,169,19411,"Orientation","ACITM07",7,1,0,1,null,"","Y","",">140",168,1,141,null,"DAYS",5037],[399,"CDISCPILOT01","701","701","01-701-1111",19243,19252,"Xanomeline Low Dose",54,81,">80",3,"WHITE",1,"F","Y","Y","N","Week 8",8,"WEEK 2",4,11,19253,"Orientation","ACITM07",7,0,0,0,null,"","Y","","2-84",56,45,2,84,"DAYS",5022],[400,"CDISCPILOT01","701","701","01-701-1111",19243,19252,"Xanomeline Low Dose",54,81,">80",3,"WHITE",1,"F","Y","Y","N","Baseline",0,"BASELINE",3,1,19243,"Word Recognition","ACITM08",8,1,1,null,null,"Y","Y","","<=1",1,0,null,1,"DAYS",5008],[401,"CDISCPILOT01","701","701","01-701-1111",19243,19252,"Xanomeline Low Dose",54,81,">80",3,"WHITE",1,"F","Y","Y","N","Week 24",24,"RETRIEVAL",201,169,19411,"Word Recognition","ACITM08",8,3,1,2,200,"","Y","",">140",168,1,141,null,"DAYS",5038],[402,"CDISCPILOT01","701","701","01-701-1111",19243,19252,"Xanomeline Low Dose",54,81,">80",3,"WHITE",1,"F","Y","Y","N","Week 8",8,"WEEK 2",4,11,19253,"Word Recognition","ACITM08",8,1,1,0,0,"","Y","","2-84",56,45,2,84,"DAYS",5023],[403,"CDISCPILOT01","701","701","01-701-1111",19243,19252,"Xanomeline Low Dose",54,81,">80",3,"WHITE",1,"F","Y","Y","N","Baseline",0,"BASELINE",3,1,19243,"Attention/Visual Search Task","ACITM09",9,31,31,null,null,"Y","Y","","<=1",1,0,null,1,"DAYS",5009],[404,"CDISCPILOT01","701","701","01-701-1111",19243,19252,"Xanomeline Low Dose",54,81,">80",3,"WHITE",1,"F","Y","Y","N","Week 24",24,"RETRIEVAL",201,169,19411,"Attention/Visual Search Task","ACITM09",9,31,31,0,0,"","Y","",">140",168,1,141,null,"DAYS",5039],[405,"CDISCPILOT01","701","701","01-701-1111",19243,19252,"Xanomeline Low Dose",54,81,">80",3,"WHITE",1,"F","Y","Y","N","Week 8",8,"WEEK 2",4,11,19253,"Attention/Visual Search Task","ACITM09",9,24,31,-7,-22.5806451613,"","Y","","2-84",56,45,2,84,"DAYS",5024],[406,"CDISCPILOT01","701","701","01-701-1111",19243,19252,"Xanomeline Low Dose",54,81,">80",3,"WHITE",1,"F","Y","Y","N","Baseline",0,"BASELINE",3,1,19243,"Maze Solution","ACITM10",10,3,3,null,null,"Y","Y","","<=1",1,0,null,1,"DAYS",5010],[407,"CDISCPILOT01","701","701","01-701-1111",19243,19252,"Xanomeline Low Dose",54,81,">80",3,"WHITE",1,"F","Y","Y","N","Week 24",24,"RETRIEVAL",201,169,19411,"Maze Solution","ACITM10",10,7,3,4,133.333333333,"","Y","",">140",168,1,141,null,"DAYS",5040],[408,"CDISCPILOT01","701","701","01-701-1111",19243,19252,"Xanomeline Low Dose",54,81,">80",3,"WHITE",1,"F","Y","Y","N","Week 8",8,"WEEK 2",4,11,19253,"Maze Solution","ACITM10",10,7,3,4,133.333333333,"","Y","","2-84",56,45,2,84,"DAYS",5025],[409,"CDISCPILOT01","701","701","01-701-1111",19243,19252,"Xanomeline Low Dose",54,81,">80",3,"WHITE",1,"F","Y","Y","N","Baseline",0,"BASELINE",3,1,19243,"Spoken Language Ability","ACITM11",11,0,0,null,null,"Y","Y","","<=1",1,0,null,1,"DAYS",5011],[410,"CDISCPILOT01","701","701","01-701-1111",19243,19252,"Xanomeline Low Dose",54,81,">80",3,"WHITE",1,"F","Y","Y","N","Week 24",24,"RETRIEVAL",201,169,19411,"Spoken Language Ability","ACITM11",11,0,0,0,null,"","Y","",">140",168,1,141,null,"DAYS",5041],[411,"CDISCPILOT01","701","701","01-701-1111",19243,19252,"Xanomeline Low Dose",54,81,">80",3,"WHITE",1,"F","Y","Y","N","Week 8",8,"WEEK 2",4,11,19253,"Spoken Language Ability","ACITM11",11,0,0,0,null,"","Y","","2-84",56,45,2,84,"DAYS",5026],[412,"CDISCPILOT01","701","701","01-701-1111",19243,19252,"Xanomeline Low Dose",54,81,">80",3,"WHITE",1,"F","Y","Y","N","Baseline",0,"BASELINE",3,1,19243,"Comprehension Of Spoken Language","ACITM12",12,0,0,null,null,"Y","Y","","<=1",1,0,null,1,"DAYS",5012],[413,"CDISCPILOT01","701","701","01-701-1111",19243,19252,"Xanomeline Low Dose",54,81,">80",3,"WHITE",1,"F","Y","Y","N","Week 24",24,"RETRIEVAL",201,169,19411,"Comprehension Of Spoken Language","ACITM12",12,0,0,0,null,"","Y","",">140",168,1,141,null,"DAYS",5042],[414,"CDISCPILOT01","701","701","01-701-1111",19243,19252,"Xanomeline Low Dose",54,81,">80",3,"WHITE",1,"F","Y","Y","N","Week 8",8,"WEEK 2",4,11,19253,"Comprehension Of Spoken Language","ACITM12",12,0,0,0,null,"","Y","","2-84",56,45,2,84,"DAYS",5027],[415,"CDISCPILOT01","701","701","01-701-1111",19243,19252,"Xanomeline Low Dose",54,81,">80",3,"WHITE",1,"F","Y","Y","N","Baseline",0,"BASELINE",3,1,19243,"Word Finding Difficulty In Spontaneous S","ACITM13",13,0,0,null,null,"Y","Y","","<=1",1,0,null,1,"DAYS",5013],[416,"CDISCPILOT01","701","701","01-701-1111",19243,19252,"Xanomeline Low Dose",54,81,">80",3,"WHITE",1,"F","Y","Y","N","Week 24",24,"RETRIEVAL",201,169,19411,"Word Finding Difficulty In Spontaneous S","ACITM13",13,0,0,0,null,"","Y","",">140",168,1,141,null,"DAYS",5043],[417,"CDISCPILOT01","701","701","01-701-1111",19243,19252,"Xanomeline Low Dose",54,81,">80",3,"WHITE",1,"F","Y","Y","N","Week 8",8,"WEEK 2",4,11,19253,"Word Finding Difficulty In Spontaneous S","ACITM13",13,0,0,0,null,"","Y","","2-84",56,45,2,84,"DAYS",5028],[418,"CDISCPILOT01","701","701","01-701-1111",19243,19252,"Xanomeline Low Dose",54,81,">80",3,"WHITE",1,"F","Y","Y","N","Baseline",0,"BASELINE",3,1,19243,"Recall Of Test Instructions","ACITM14",14,0,0,null,null,"Y","Y","","<=1",1,0,null,1,"DAYS",5014],[419,"CDISCPILOT01","701","701","01-701-1111",19243,19252,"Xanomeline Low Dose",54,81,">80",3,"WHITE",1,"F","Y","Y","N","Week 24",24,"RETRIEVAL",201,169,19411,"Recall Of Test Instructions","ACITM14",14,0,0,0,null,"","Y","",">140",168,1,141,null,"DAYS",5044],[420,"CDISCPILOT01","701","701","01-701-1111",19243,19252,"Xanomeline Low Dose",54,81,">80",3,"WHITE",1,"F","Y","Y","N","Week 8",8,"WEEK 2",4,11,19253,"Recall Of Test Instructions","ACITM14",14,0,0,0,null,"","Y","","2-84",56,45,2,84,"DAYS",5029],[421,"CDISCPILOT01","701","701","01-701-1111",19243,19252,"Xanomeline Low Dose",54,81,">80",3,"WHITE",1,"F","Y","Y","N","Baseline",0,"BASELINE",3,1,19243,"Adas-Cog(11) Subscore","ACTOT",15,7,7,null,null,"Y","Y","","<=1",1,0,null,1,"DAYS",5015],[422,"CDISCPILOT01","701","701","01-701-1111",19243,19252,"Xanomeline Low Dose",54,81,">80",3,"WHITE",1,"F","Y","Y","N","Week 16",16,"WEEK 2",4,11,19253,"Adas-Cog(11) Subscore","ACTOT",15,5,7,-2,-28.5714285714,"","Y","LOCF","85-140",112,101,85,140,"DAYS",5030],[423,"CDISCPILOT01","701","701","01-701-1111",19243,19252,"Xanomeline Low Dose",54,81,">80",3,"WHITE",1,"F","Y","Y","N","Week 24",24,"RETRIEVAL",201,169,19411,"Adas-Cog(11) Subscore","ACTOT",15,9,7,2,28.5714285714,"","Y","",">140",168,1,141,null,"DAYS",5045],[424,"CDISCPILOT01","701","701","01-701-1111",19243,19252,"Xanomeline Low Dose",54,81,">80",3,"WHITE",1,"F","Y","Y","N","Week 8",8,"WEEK 2",4,11,19253,"Adas-Cog(11) Subscore","ACTOT",15,5,7,-2,-28.5714285714,"","Y","","2-84",56,45,2,84,"DAYS",5030],[425,"CDISCPILOT01","701","701","01-701-1115",19327,19381,"Xanomeline Low Dose",54,84,">80",3,"WHITE",1,"M","Y","Y","N","Baseline",0,"BASELINE",3,1,19327,"Word Recall Task","ACITM01",1,6,6,null,null,"Y","Y","","<=1",1,0,null,1,"DAYS",5001],[426,"CDISCPILOT01","701","701","01-701-1115",19327,19381,"Xanomeline Low Dose",54,84,">80",3,"WHITE",1,"M","Y","Y","N","Week 24",24,"RETRIEVAL",201,172,19498,"Word Recall Task","ACITM01",1,6,6,0,0,"","Y","",">140",168,4,141,null,"DAYS",5031],[427,"CDISCPILOT01","701","701","01-701-1115",19327,19381,"Xanomeline Low Dose",54,84,">80",3,"WHITE",1,"M","Y","Y","N","Week 8",8,"WEEK 8",8,55,19381,"Word Recall Task","ACITM01",1,6,6,0,0,"","Y","","2-84",56,1,2,84,"DAYS",5016],[428,"CDISCPILOT01","701","701","01-701-1115",19327,19381,"Xanomeline Low Dose",54,84,">80",3,"WHITE",1,"M","Y","Y","N","Baseline",0,"BASELINE",3,1,19327,"Naming Objects And Fingers (Refer To 5 C","ACITM02",2,0,0,null,null,"Y","Y","","<=1",1,0,null,1,"DAYS",5002],[429,"CDISCPILOT01","701","701","01-701-1115",19327,19381,"Xanomeline Low Dose",54,84,">80",3,"WHITE",1,"M","Y","Y","N","Week 24",24,"RETRIEVAL",201,172,19498,"Naming Objects And Fingers (Refer To 5 C","ACITM02",2,0,0,0,null,"","Y","",">140",168,4,141,null,"DAYS",5032],[430,"CDISCPILOT01","701","701","01-701-1115",19327,19381,"Xanomeline Low Dose",54,84,">80",3,"WHITE",1,"M","Y","Y","N","Week 8",8,"WEEK 8",8,55,19381,"Naming Objects And Fingers (Refer To 5 C","ACITM02",2,1,0,1,null,"","Y","","2-84",56,1,2,84,"DAYS",5017],[431,"CDISCPILOT01","701","701","01-701-1115",19327,19381,"Xanomeline Low Dose",54,84,">80",3,"WHITE",1,"M","Y","Y","N","Baseline",0,"BASELINE",3,1,19327,"Delayed Word Recall","ACITM03",3,6,6,null,null,"Y","Y","","<=1",1,0,null,1,"DAYS",5003],[432,"CDISCPILOT01","701","701","01-701-1115",19327,19381,"Xanomeline Low Dose",54,84,">80",3,"WHITE",1,"M","Y","Y","N","Week 24",24,"RETRIEVAL",201,172,19498,"Delayed Word Recall","ACITM03",3,7,6,1,16.6666666667,"","Y","",">140",168,4,141,null,"DAYS",5033],[433,"CDISCPILOT01","701","701","01-701-1115",19327,19381,"Xanomeline Low Dose",54,84,">80",3,"WHITE",1,"M","Y","Y","N","Week 8",8,"WEEK 8",8,55,19381,"Delayed Word Recall","ACITM03",3,6,6,0,0,"","Y","","2-84",56,1,2,84,"DAYS",5018],[434,"CDISCPILOT01","701","701","01-701-1115",19327,19381,"Xanomeline Low Dose",54,84,">80",3,"WHITE",1,"M","Y","Y","N","Baseline",0,"BASELINE",3,1,19327,"Commands","ACITM04",4,0,0,null,null,"Y","Y","","<=1",1,0,null,1,"DAYS",5004],[435,"CDISCPILOT01","701","701","01-701-1115",19327,19381,"Xanomeline Low Dose",54,84,">80",3,"WHITE",1,"M","Y","Y","N","Week 24",24,"RETRIEVAL",201,172,19498,"Commands","ACITM04",4,0,0,0,null,"","Y","",">140",168,4,141,null,"DAYS",5034],[436,"CDISCPILOT01","701","701","01-701-1115",19327,19381,"Xanomeline Low Dose",54,84,">80",3,"WHITE",1,"M","Y","Y","N","Week 8",8,"WEEK 8",8,55,19381,"Commands","ACITM04",4,0,0,0,null,"","Y","","2-84",56,1,2,84,"DAYS",5019],[437,"CDISCPILOT01","701","701","01-701-1115",19327,19381,"Xanomeline Low Dose",54,84,">80",3,"WHITE",1,"M","Y","Y","N","Baseline",0,"BASELINE",3,1,19327,"Constructional Praxis","ACITM05",5,1,1,null,null,"Y","Y","","<=1",1,0,null,1,"DAYS",5005],[438,"CDISCPILOT01","701","701","01-701-1115",19327,19381,"Xanomeline Low Dose",54,84,">80",3,"WHITE",1,"M","Y","Y","N","Week 24",24,"RETRIEVAL",201,172,19498,"Constructional Praxis","ACITM05",5,1,1,0,0,"","Y","",">140",168,4,141,null,"DAYS",5035],[439,"CDISCPILOT01","701","701","01-701-1115",19327,19381,"Xanomeline Low Dose",54,84,">80",3,"WHITE",1,"M","Y","Y","N","Week 8",8,"WEEK 8",8,55,19381,"Constructional Praxis","ACITM05",5,1,1,0,0,"","Y","","2-84",56,1,2,84,"DAYS",5020],[440,"CDISCPILOT01","701","701","01-701-1115",19327,19381,"Xanomeline Low Dose",54,84,">80",3,"WHITE",1,"M","Y","Y","N","Baseline",0,"BASELINE",3,1,19327,"Ideational Praxis","ACITM06",6,1,1,null,null,"Y","Y","","<=1",1,0,null,1,"DAYS",5006],[441,"CDISCPILOT01","701","701","01-701-1115",19327,19381,"Xanomeline Low Dose",54,84,">80",3,"WHITE",1,"M","Y","Y","N","Week 24",24,"RETRIEVAL",201,172,19498,"Ideational Praxis","ACITM06",6,0,1,-1,-100,"","Y","",">140",168,4,141,null,"DAYS",5036],[442,"CDISCPILOT01","701","701","01-701-1115",19327,19381,"Xanomeline Low Dose",54,84,">80",3,"WHITE",1,"M","Y","Y","N","Week 8",8,"WEEK 8",8,55,19381,"Ideational Praxis","ACITM06",6,0,1,-1,-100,"","Y","","2-84",56,1,2,84,"DAYS",5021],[443,"CDISCPILOT01","701","701","01-701-1115",19327,19381,"Xanomeline Low Dose",54,84,">80",3,"WHITE",1,"M","Y","Y","N","Baseline",0,"BASELINE",3,1,19327,"Orientation","ACITM07",7,1,1,null,null,"Y","Y","","<=1",1,0,null,1,"DAYS",5007],[444,"CDISCPILOT01","701","701","01-701-1115",19327,19381,"Xanomeline Low Dose",54,84,">80",3,"WHITE",1,"M","Y","Y","N","Week 24",24,"RETRIEVAL",201,172,19498,"Orientation","ACITM07",7,2,1,1,100,"","Y","",">140",168,4,141,null,"DAYS",5037],[445,"CDISCPILOT01","701","701","01-701-1115",19327,19381,"Xanomeline Low Dose",54,84,">80",3,"WHITE",1,"M","Y","Y","N","Week 8",8,"WEEK 8",8,55,19381,"Orientation","ACITM07",7,1,1,0,0,"","Y","","2-84",56,1,2,84,"DAYS",5022],[446,"CDISCPILOT01","701","701","01-701-1115",19327,19381,"Xanomeline Low Dose",54,84,">80",3,"WHITE",1,"M","Y","Y","N","Baseline",0,"BASELINE",3,1,19327,"Word Recognition","ACITM08",8,1,1,null,null,"Y","Y","","<=1",1,0,null,1,"DAYS",5008],[447,"CDISCPILOT01","701","701","01-701-1115",19327,19381,"Xanomeline Low Dose",54,84,">80",3,"WHITE",1,"M","Y","Y","N","Week 24",24,"RETRIEVAL",201,172,19498,"Word Recognition","ACITM08",8,1,1,0,0,"","Y","",">140",168,4,141,null,"DAYS",5038],[448,"CDISCPILOT01","701","701","01-701-1115",19327,19381,"Xanomeline Low Dose",54,84,">80",3,"WHITE",1,"M","Y","Y","N","Week 8",8,"WEEK 8",8,55,19381,"Word Recognition","ACITM08",8,5,1,4,400,"","Y","","2-84",56,1,2,84,"DAYS",5023],[449,"CDISCPILOT01","701","701","01-701-1115",19327,19381,"Xanomeline Low Dose",54,84,">80",3,"WHITE",1,"M","Y","Y","N","Baseline",0,"BASELINE",3,1,19327,"Attention/Visual Search Task","ACITM09",9,26,26,null,null,"Y","Y","","<=1",1,0,null,1,"DAYS",5009],[450,"CDISCPILOT01","701","701","01-701-1115",19327,19381,"Xanomeline Low Dose",54,84,">80",3,"WHITE",1,"M","Y","Y","N","Week 24",24,"RETRIEVAL",201,172,19498,"Attention/Visual Search Task","ACITM09",9,24,26,-2,-7.69230769231,"","Y","",">140",168,4,141,null,"DAYS",5039],[451,"CDISCPILOT01","701","701","01-701-1115",19327,19381,"Xanomeline Low Dose",54,84,">80",3,"WHITE",1,"M","Y","Y","N","Week 8",8,"WEEK 8",8,55,19381,"Attention/Visual Search Task","ACITM09",9,23,26,-3,-11.5384615385,"","Y","","2-84",56,1,2,84,"DAYS",5024],[452,"CDISCPILOT01","701","701","01-701-1115",19327,19381,"Xanomeline Low Dose",54,84,">80",3,"WHITE",1,"M","Y","Y","N","Baseline",0,"BASELINE",3,1,19327,"Maze Solution","ACITM10",10,3,3,null,null,"Y","Y","","<=1",1,0,null,1,"DAYS",5010],[453,"CDISCPILOT01","701","701","01-701-1115",19327,19381,"Xanomeline Low Dose",54,84,">80",3,"WHITE",1,"M","Y","Y","N","Week 24",24,"RETRIEVAL",201,172,19498,"Maze Solution","ACITM10",10,7,3,4,133.333333333,"","Y","",">140",168,4,141,null,"DAYS",5040],[454,"CDISCPILOT01","701","701","01-701-1115",19327,19381,"Xanomeline Low Dose",54,84,">80",3,"WHITE",1,"M","Y","Y","N","Week 8",8,"WEEK 8",8,55,19381,"Maze Solution","ACITM10",10,6,3,3,100,"","Y","","2-84",56,1,2,84,"DAYS",5025],[455,"CDISCPILOT01","701","701","01-701-1115",19327,19381,"Xanomeline Low Dose",54,84,">80",3,"WHITE",1,"M","Y","Y","N","Baseline",0,"BASELINE",3,1,19327,"Spoken Language Ability","ACITM11",11,0,0,null,null,"Y","Y","","<=1",1,0,null,1,"DAYS",5011],[456,"CDISCPILOT01","701","701","01-701-1115",19327,19381,"Xanomeline Low Dose",54,84,">80",3,"WHITE",1,"M","Y","Y","N","Week 24",24,"RETRIEVAL",201,172,19498,"Spoken Language Ability","ACITM11",11,0,0,0,null,"","Y","",">140",168,4,141,null,"DAYS",5041],[457,"CDISCPILOT01","701","701","01-701-1115",19327,19381,"Xanomeline Low Dose",54,84,">80",3,"WHITE",1,"M","Y","Y","N","Week 8",8,"WEEK 8",8,55,19381,"Spoken Language Ability","ACITM11",11,0,0,0,null,"","Y","","2-84",56,1,2,84,"DAYS",5026],[458,"CDISCPILOT01","701","701","01-701-1115",19327,19381,"Xanomeline Low Dose",54,84,">80",3,"WHITE",1,"M","Y","Y","N","Baseline",0,"BASELINE",3,1,19327,"Comprehension Of Spoken Language","ACITM12",12,0,0,null,null,"Y","Y","","<=1",1,0,null,1,"DAYS",5012],[459,"CDISCPILOT01","701","701","01-701-1115",19327,19381,"Xanomeline Low Dose",54,84,">80",3,"WHITE",1,"M","Y","Y","N","Week 24",24,"RETRIEVAL",201,172,19498,"Comprehension Of Spoken Language","ACITM12",12,0,0,0,null,"","Y","",">140",168,4,141,null,"DAYS",5042],[460,"CDISCPILOT01","701","701","01-701-1115",19327,19381,"Xanomeline Low Dose",54,84,">80",3,"WHITE",1,"M","Y","Y","N","Week 8",8,"WEEK 8",8,55,19381,"Comprehension Of Spoken Language","ACITM12",12,0,0,0,null,"","Y","","2-84",56,1,2,84,"DAYS",5027],[461,"CDISCPILOT01","701","701","01-701-1115",19327,19381,"Xanomeline Low Dose",54,84,">80",3,"WHITE",1,"M","Y","Y","N","Baseline",0,"BASELINE",3,1,19327,"Word Finding Difficulty In Spontaneous S","ACITM13",13,0,0,null,null,"Y","Y","","<=1",1,0,null,1,"DAYS",5013],[462,"CDISCPILOT01","701","701","01-701-1115",19327,19381,"Xanomeline Low Dose",54,84,">80",3,"WHITE",1,"M","Y","Y","N","Week 24",24,"RETRIEVAL",201,172,19498,"Word Finding Difficulty In Spontaneous S","ACITM13",13,0,0,0,null,"","Y","",">140",168,4,141,null,"DAYS",5043],[463,"CDISCPILOT01","701","701","01-701-1115",19327,19381,"Xanomeline Low Dose",54,84,">80",3,"WHITE",1,"M","Y","Y","N","Week 8",8,"WEEK 8",8,55,19381,"Word Finding Difficulty In Spontaneous S","ACITM13",13,0,0,0,null,"","Y","","2-84",56,1,2,84,"DAYS",5028],[464,"CDISCPILOT01","701","701","01-701-1115",19327,19381,"Xanomeline Low Dose",54,84,">80",3,"WHITE",1,"M","Y","Y","N","Baseline",0,"BASELINE",3,1,19327,"Recall Of Test Instructions","ACITM14",14,0,0,null,null,"Y","Y","","<=1",1,0,null,1,"DAYS",5014],[465,"CDISCPILOT01","701","701","01-701-1115",19327,19381,"Xanomeline Low Dose",54,84,">80",3,"WHITE",1,"M","Y","Y","N","Week 24",24,"RETRIEVAL",201,172,19498,"Recall Of Test Instructions","ACITM14",14,0,0,0,null,"","Y","",">140",168,4,141,null,"DAYS",5044],[466,"CDISCPILOT01","701","701","01-701-1115",19327,19381,"Xanomeline Low Dose",54,84,">80",3,"WHITE",1,"M","Y","Y","N","Week 8",8,"WEEK 8",8,55,19381,"Recall Of Test Instructions","ACITM14",14,0,0,0,null,"","Y","","2-84",56,1,2,84,"DAYS",5029],[467,"CDISCPILOT01","701","701","01-701-1115",19327,19381,"Xanomeline Low Dose",54,84,">80",3,"WHITE",1,"M","Y","Y","N","Baseline",0,"BASELINE",3,1,19327,"Adas-Cog(11) Subscore","ACTOT",15,10,10,null,null,"Y","Y","","<=1",1,0,null,1,"DAYS",5015],[468,"CDISCPILOT01","701","701","01-701-1115",19327,19381,"Xanomeline Low Dose",54,84,">80",3,"WHITE",1,"M","Y","Y","N","Week 16",16,"WEEK 8",8,55,19381,"Adas-Cog(11) Subscore","ACTOT",15,14,10,4,40,"","Y","LOCF","85-140",112,57,85,140,"DAYS",5030],[469,"CDISCPILOT01","701","701","01-701-1115",19327,19381,"Xanomeline Low Dose",54,84,">80",3,"WHITE",1,"M","Y","Y","N","Week 24",24,"RETRIEVAL",201,172,19498,"Adas-Cog(11) Subscore","ACTOT",15,10,10,0,0,"","Y","",">140",168,4,141,null,"DAYS",5045],[470,"CDISCPILOT01","701","701","01-701-1115",19327,19381,"Xanomeline Low Dose",54,84,">80",3,"WHITE",1,"M","Y","Y","N","Week 8",8,"WEEK 8",8,55,19381,"Adas-Cog(11) Subscore","ACTOT",15,14,10,4,40,"","Y","","2-84",56,1,2,84,"DAYS",5030],[471,"CDISCPILOT01","701","701","01-701-1118",19794,19975,"Placebo",0,52,"<65",1,"WHITE",1,"M","Y","Y","Y","Baseline",0,"BASELINE",3,1,19794,"Word Recall Task","ACITM01",1,5,5,null,null,"Y","Y","","<=1",1,0,null,1,"DAYS",5001],[472,"CDISCPILOT01","701","701","01-701-1118",19794,19975,"Placebo",0,52,"<65",1,"WHITE",1,"M","Y","Y","Y","Week 16",16,"WEEK 16",10,113,19906,"Word Recall Task","ACITM01",1,4,5,-1,-20,"","Y","","85-140",112,1,85,140,"DAYS",5031],[473,"CDISCPILOT01","701","701","01-701-1118",19794,19975,"Placebo",0,52,"<65",1,"WHITE",1,"M","Y","Y","Y","Week 24",24,"WEEK 24",12,169,19962,"Word Recall Task","ACITM01",1,5,5,0,0,"","Y","",">140",168,1,141,null,"DAYS",5046],[474,"CDISCPILOT01","701","701","01-701-1118",19794,19975,"Placebo",0,52,"<65",1,"WHITE",1,"M","Y","Y","Y","Week 8",8,"WEEK 8",8,58,19851,"Word Recall Task","ACITM01",1,5,5,0,0,"","Y","","2-84",56,2,2,84,"DAYS",5016],[475,"CDISCPILOT01","701","701","01-701-1118",19794,19975,"Placebo",0,52,"<65",1,"WHITE",1,"M","Y","Y","Y","Baseline",0,"BASELINE",3,1,19794,"Naming Objects And Fingers (Refer To 5 C","ACITM02",2,1,1,null,null,"Y","Y","","<=1",1,0,null,1,"DAYS",5002],[476,"CDISCPILOT01","701","701","01-701-1118",19794,19975,"Placebo",0,52,"<65",1,"WHITE",1,"M","Y","Y","Y","Week 16",16,"WEEK 16",10,113,19906,"Naming Objects And Fingers (Refer To 5 C","ACITM02",2,0,1,-1,-100,"","Y","","85-140",112,1,85,140,"DAYS",5032],[477,"CDISCPILOT01","701","701","01-701-1118",19794,19975,"Placebo",0,52,"<65",1,"WHITE",1,"M","Y","Y","Y","Week 24",24,"WEEK 24",12,169,19962,"Naming Objects And Fingers (Refer To 5 C","ACITM02",2,0,1,-1,-100,"","Y","",">140",168,1,141,null,"DAYS",5047],[478,"CDISCPILOT01","701","701","01-701-1118",19794,19975,"Placebo",0,52,"<65",1,"WHITE",1,"M","Y","Y","Y","Week 8",8,"WEEK 8",8,58,19851,"Naming Objects And Fingers (Refer To 5 C","ACITM02",2,0,1,-1,-100,"","Y","","2-84",56,2,2,84,"DAYS",5017],[479,"CDISCPILOT01","701","701","01-701-1118",19794,19975,"Placebo",0,52,"<65",1,"WHITE",1,"M","Y","Y","Y","Baseline",0,"BASELINE",3,1,19794,"Delayed Word Recall","ACITM03",3,10,10,null,null,"Y","Y","","<=1",1,0,null,1,"DAYS",5003],[480,"CDISCPILOT01","701","701","01-701-1118",19794,19975,"Placebo",0,52,"<65",1,"WHITE",1,"M","Y","Y","Y","Week 16",16,"WEEK 16",10,113,19906,"Delayed Word Recall","ACITM03",3,6,10,-4,-40,"","Y","","85-140",112,1,85,140,"DAYS",5033],[481,"CDISCPILOT01","701","701","01-701-1118",19794,19975,"Placebo",0,52,"<65",1,"WHITE",1,"M","Y","Y","Y","Week 24",24,"WEEK 24",12,169,19962,"Delayed Word Recall","ACITM03",3,8,10,-2,-20,"","Y","",">140",168,1,141,null,"DAYS",5048],[482,"CDISCPILOT01","701","701","01-701-1118",19794,19975,"Placebo",0,52,"<65",1,"WHITE",1,"M","Y","Y","Y","Week 8",8,"WEEK 8",8,58,19851,"Delayed Word Recall","ACITM03",3,7,10,-3,-30,"","Y","","2-84",56,2,2,84,"DAYS",5018],[483,"CDISCPILOT01","701","701","01-701-1118",19794,19975,"Placebo",0,52,"<65",1,"WHITE",1,"M","Y","Y","Y","Baseline",0,"BASELINE",3,1,19794,"Commands","ACITM04",4,0,0,null,null,"Y","Y","","<=1",1,0,null,1,"DAYS",5004],[484,"CDISCPILOT01","701","701","01-701-1118",19794,19975,"Placebo",0,52,"<65",1,"WHITE",1,"M","Y","Y","Y","Week 16",16,"WEEK 16",10,113,19906,"Commands","ACITM04",4,0,0,0,null,"","Y","","85-140",112,1,85,140,"DAYS",5034],[485,"CDISCPILOT01","701","701","01-701-1118",19794,19975,"Placebo",0,52,"<65",1,"WHITE",1,"M","Y","Y","Y","Week 24",24,"WEEK 24",12,169,19962,"Commands","ACITM04",4,0,0,0,null,"","Y","",">140",168,1,141,null,"DAYS",5049],[486,"CDISCPILOT01","701","701","01-701-1118",19794,19975,"Placebo",0,52,"<65",1,"WHITE",1,"M","Y","Y","Y","Week 8",8,"WEEK 8",8,58,19851,"Commands","ACITM04",4,0,0,0,null,"","Y","","2-84",56,2,2,84,"DAYS",5019],[487,"CDISCPILOT01","701","701","01-701-1118",19794,19975,"Placebo",0,52,"<65",1,"WHITE",1,"M","Y","Y","Y","Baseline",0,"BASELINE",3,1,19794,"Constructional Praxis","ACITM05",5,3,3,null,null,"Y","Y","","<=1",1,0,null,1,"DAYS",5005],[488,"CDISCPILOT01","701","701","01-701-1118",19794,19975,"Placebo",0,52,"<65",1,"WHITE",1,"M","Y","Y","Y","Week 16",16,"WEEK 16",10,113,19906,"Constructional Praxis","ACITM05",5,2,3,-1,-33.3333333333,"","Y","","85-140",112,1,85,140,"DAYS",5035],[489,"CDISCPILOT01","701","701","01-701-1118",19794,19975,"Placebo",0,52,"<65",1,"WHITE",1,"M","Y","Y","Y","Week 24",24,"WEEK 24",12,169,19962,"Constructional Praxis","ACITM05",5,2,3,-1,-33.3333333333,"","Y","",">140",168,1,141,null,"DAYS",5050],[490,"CDISCPILOT01","701","701","01-701-1118",19794,19975,"Placebo",0,52,"<65",1,"WHITE",1,"M","Y","Y","Y","Week 8",8,"WEEK 8",8,58,19851,"Constructional Praxis","ACITM05",5,3,3,0,0,"","Y","","2-84",56,2,2,84,"DAYS",5020],[491,"CDISCPILOT01","701","701","01-701-1118",19794,19975,"Placebo",0,52,"<65",1,"WHITE",1,"M","Y","Y","Y","Baseline",0,"BASELINE",3,1,19794,"Ideational Praxis","ACITM06",6,1,1,null,null,"Y","Y","","<=1",1,0,null,1,"DAYS",5006],[492,"CDISCPILOT01","701","701","01-701-1118",19794,19975,"Placebo",0,52,"<65",1,"WHITE",1,"M","Y","Y","Y","Week 16",16,"WEEK 16",10,113,19906,"Ideational Praxis","ACITM06",6,0,1,-1,-100,"","Y","","85-140",112,1,85,140,"DAYS",5036],[493,"CDISCPILOT01","701","701","01-701-1118",19794,19975,"Placebo",0,52,"<65",1,"WHITE",1,"M","Y","Y","Y","Week 24",24,"WEEK 24",12,169,19962,"Ideational Praxis","ACITM06",6,0,1,-1,-100,"","Y","",">140",168,1,141,null,"DAYS",5051],[494,"CDISCPILOT01","701","701","01-701-1118",19794,19975,"Placebo",0,52,"<65",1,"WHITE",1,"M","Y","Y","Y","Week 8",8,"WEEK 8",8,58,19851,"Ideational Praxis","ACITM06",6,0,1,-1,-100,"","Y","","2-84",56,2,2,84,"DAYS",5021],[495,"CDISCPILOT01","701","701","01-701-1118",19794,19975,"Placebo",0,52,"<65",1,"WHITE",1,"M","Y","Y","Y","Baseline",0,"BASELINE",3,1,19794,"Orientation","ACITM07",7,4,4,null,null,"Y","Y","","<=1",1,0,null,1,"DAYS",5007],[496,"CDISCPILOT01","701","701","01-701-1118",19794,19975,"Placebo",0,52,"<65",1,"WHITE",1,"M","Y","Y","Y","Week 16",16,"WEEK 16",10,113,19906,"Orientation","ACITM07",7,1,4,-3,-75,"","Y","","85-140",112,1,85,140,"DAYS",5037],[497,"CDISCPILOT01","701","701","01-701-1118",19794,19975,"Placebo",0,52,"<65",1,"WHITE",1,"M","Y","Y","Y","Week 24",24,"WEEK 24",12,169,19962,"Orientation","ACITM07",7,1,4,-3,-75,"","Y","",">140",168,1,141,null,"DAYS",5052],[498,"CDISCPILOT01","701","701","01-701-1118",19794,19975,"Placebo",0,52,"<65",1,"WHITE",1,"M","Y","Y","Y","Week 8",8,"WEEK 8",8,58,19851,"Orientation","ACITM07",7,1,4,-3,-75,"","Y","","2-84",56,2,2,84,"DAYS",5022],[499,"CDISCPILOT01","701","701","01-701-1118",19794,19975,"Placebo",0,52,"<65",1,"WHITE",1,"M","Y","Y","Y","Baseline",0,"BASELINE",3,1,19794,"Word Recognition","ACITM08",8,10,10,null,null,"Y","Y","","<=1",1,0,null,1,"DAYS",5008],[500,"CDISCPILOT01","701","701","01-701-1118",19794,19975,"Placebo",0,52,"<65",1,"WHITE",1,"M","Y","Y","Y","Week 16",16,"WEEK 16",10,113,19906,"Word Recognition","ACITM08",8,10,10,0,0,"","Y","","85-140",112,1,85,140,"DAYS",5038],[501,"CDISCPILOT01","701","701","01-701-1118",19794,19975,"Placebo",0,52,"<65",1,"WHITE",1,"M","Y","Y","Y","Week 24",24,"WEEK 24",12,169,19962,"Word Recognition","ACITM08",8,7,10,-3,-30,"","Y","",">140",168,1,141,null,"DAYS",5053],[502,"CDISCPILOT01","701","701","01-701-1118",19794,19975,"Placebo",0,52,"<65",1,"WHITE",1,"M","Y","Y","Y","Week 8",8,"WEEK 8",8,58,19851,"Word Recognition","ACITM08",8,10,10,0,0,"","Y","","2-84",56,2,2,84,"DAYS",5023],[503,"CDISCPILOT01","701","701","01-701-1118",19794,19975,"Placebo",0,52,"<65",1,"WHITE",1,"M","Y","Y","Y","Baseline",0,"BASELINE",3,1,19794,"Attention/Visual Search Task","ACITM09",9,12,12,null,null,"Y","Y","","<=1",1,0,null,1,"DAYS",5009],[504,"CDISCPILOT01","701","701","01-701-1118",19794,19975,"Placebo",0,52,"<65",1,"WHITE",1,"M","Y","Y","Y","Week 16",16,"WEEK 16",10,113,19906,"Attention/Visual Search Task","ACITM09",9,11,12,-1,-8.33333333333,"","Y","","85-140",112,1,85,140,"DAYS",5039],[505,"CDISCPILOT01","701","701","01-701-1118",19794,19975,"Placebo",0,52,"<65",1,"WHITE",1,"M","Y","Y","Y","Week 24",24,"WEEK 24",12,169,19962,"Attention/Visual Search Task","ACITM09",9,18,12,6,50,"","Y","",">140",168,1,141,null,"DAYS",5054],[506,"CDISCPILOT01","701","701","01-701-1118",19794,19975,"Placebo",0,52,"<65",1,"WHITE",1,"M","Y","Y","Y","Week 8",8,"WEEK 8",8,58,19851,"Attention/Visual Search Task","ACITM09",9,10,12,-2,-16.6666666667,"","Y","","2-84",56,2,2,84,"DAYS",5024],[507,"CDISCPILOT01","701","701","01-701-1118",19794,19975,"Placebo",0,52,"<65",1,"WHITE",1,"M","Y","Y","Y","Baseline",0,"BASELINE",3,1,19794,"Maze Solution","ACITM10",10,6,6,null,null,"Y","Y","","<=1",1,0,null,1,"DAYS",5010],[508,"CDISCPILOT01","701","701","01-701-1118",19794,19975,"Placebo",0,52,"<65",1,"WHITE",1,"M","Y","Y","Y","Week 16",16,"WEEK 16",10,113,19906,"Maze Solution","ACITM10",10,9,6,3,50,"","Y","","85-140",112,1,85,140,"DAYS",5040],[509,"CDISCPILOT01","701","701","01-701-1118",19794,19975,"Placebo",0,52,"<65",1,"WHITE",1,"M","Y","Y","Y","Week 24",24,"WEEK 24",12,169,19962,"Maze Solution","ACITM10",10,7,6,1,16.6666666667,"","Y","",">140",168,1,141,null,"DAYS",5055],[510,"CDISCPILOT01","701","701","01-701-1118",19794,19975,"Placebo",0,52,"<65",1,"WHITE",1,"M","Y","Y","Y","Week 8",8,"WEEK 8",8,58,19851,"Maze Solution","ACITM10",10,7,6,1,16.6666666667,"","Y","","2-84",56,2,2,84,"DAYS",5025],[511,"CDISCPILOT01","701","701","01-701-1118",19794,19975,"Placebo",0,52,"<65",1,"WHITE",1,"M","Y","Y","Y","Baseline",0,"BASELINE",3,1,19794,"Spoken Language Ability","ACITM11",11,0,0,null,null,"Y","Y","","<=1",1,0,null,1,"DAYS",5011],[512,"CDISCPILOT01","701","701","01-701-1118",19794,19975,"Placebo",0,52,"<65",1,"WHITE",1,"M","Y","Y","Y","Week 16",16,"WEEK 16",10,113,19906,"Spoken Language Ability","ACITM11",11,0,0,0,null,"","Y","","85-140",112,1,85,140,"DAYS",5041],[513,"CDISCPILOT01","701","701","01-701-1118",19794,19975,"Placebo",0,52,"<65",1,"WHITE",1,"M","Y","Y","Y","Week 24",24,"WEEK 24",12,169,19962,"Spoken Language Ability","ACITM11",11,0,0,0,null,"","Y","",">140",168,1,141,null,"DAYS",5056],[514,"CDISCPILOT01","701","701","01-701-1118",19794,19975,"Placebo",0,52,"<65",1,"WHITE",1,"M","Y","Y","Y","Week 8",8,"WEEK 8",8,58,19851,"Spoken Language Ability","ACITM11",11,0,0,0,null,"","Y","","2-84",56,2,2,84,"DAYS",5026],[515,"CDISCPILOT01","701","701","01-701-1118",19794,19975,"Placebo",0,52,"<65",1,"WHITE",1,"M","Y","Y","Y","Baseline",0,"BASELINE",3,1,19794,"Comprehension Of Spoken Language","ACITM12",12,0,0,null,null,"Y","Y","","<=1",1,0,null,1,"DAYS",5012],[516,"CDISCPILOT01","701","701","01-701-1118",19794,19975,"Placebo",0,52,"<65",1,"WHITE",1,"M","Y","Y","Y","Week 16",16,"WEEK 16",10,113,19906,"Comprehension Of Spoken Language","ACITM12",12,0,0,0,null,"","Y","","85-140",112,1,85,140,"DAYS",5042],[517,"CDISCPILOT01","701","701","01-701-1118",19794,19975,"Placebo",0,52,"<65",1,"WHITE",1,"M","Y","Y","Y","Week 24",24,"WEEK 24",12,169,19962,"Comprehension Of Spoken Language","ACITM12",12,0,0,0,null,"","Y","",">140",168,1,141,null,"DAYS",5057],[518,"CDISCPILOT01","701","701","01-701-1118",19794,19975,"Placebo",0,52,"<65",1,"WHITE",1,"M","Y","Y","Y","Week 8",8,"WEEK 8",8,58,19851,"Comprehension Of Spoken Language","ACITM12",12,0,0,0,null,"","Y","","2-84",56,2,2,84,"DAYS",5027],[519,"CDISCPILOT01","701","701","01-701-1118",19794,19975,"Placebo",0,52,"<65",1,"WHITE",1,"M","Y","Y","Y","Baseline",0,"BASELINE",3,1,19794,"Word Finding Difficulty In Spontaneous S","ACITM13",13,1,1,null,null,"Y","Y","","<=1",1,0,null,1,"DAYS",5013],[520,"CDISCPILOT01","701","701","01-701-1118",19794,19975,"Placebo",0,52,"<65",1,"WHITE",1,"M","Y","Y","Y","Week 16",16,"WEEK 16",10,113,19906,"Word Finding Difficulty In Spontaneous S","ACITM13",13,0,1,-1,-100,"","Y","","85-140",112,1,85,140,"DAYS",5043],[521,"CDISCPILOT01","701","701","01-701-1118",19794,19975,"Placebo",0,52,"<65",1,"WHITE",1,"M","Y","Y","Y","Week 24",24,"WEEK 24",12,169,19962,"Word Finding Difficulty In Spontaneous S","ACITM13",13,0,1,-1,-100,"","Y","",">140",168,1,141,null,"DAYS",5058],[522,"CDISCPILOT01","701","701","01-701-1118",19794,19975,"Placebo",0,52,"<65",1,"WHITE",1,"M","Y","Y","Y","Week 8",8,"WEEK 8",8,58,19851,"Word Finding Difficulty In Spontaneous S","ACITM13",13,0,1,-1,-100,"","Y","","2-84",56,2,2,84,"DAYS",5028],[523,"CDISCPILOT01","701","701","01-701-1118",19794,19975,"Placebo",0,52,"<65",1,"WHITE",1,"M","Y","Y","Y","Baseline",0,"BASELINE",3,1,19794,"Recall Of Test Instructions","ACITM14",14,1,1,null,null,"Y","Y","","<=1",1,0,null,1,"DAYS",5014],[524,"CDISCPILOT01","701","701","01-701-1118",19794,19975,"Placebo",0,52,"<65",1,"WHITE",1,"M","Y","Y","Y","Week 16",16,"WEEK 16",10,113,19906,"Recall Of Test Instructions","ACITM14",14,0,1,-1,-100,"","Y","","85-140",112,1,85,140,"DAYS",5044],[525,"CDISCPILOT01","701","701","01-701-1118",19794,19975,"Placebo",0,52,"<65",1,"WHITE",1,"M","Y","Y","Y","Week 24",24,"WEEK 24",12,169,19962,"Recall Of Test Instructions","ACITM14",14,0,1,-1,-100,"","Y","",">140",168,1,141,null,"DAYS",5059],[526,"CDISCPILOT01","701","701","01-701-1118",19794,19975,"Placebo",0,52,"<65",1,"WHITE",1,"M","Y","Y","Y","Week 8",8,"WEEK 8",8,58,19851,"Recall Of Test Instructions","ACITM14",14,0,1,-1,-100,"","Y","","2-84",56,2,2,84,"DAYS",5029],[527,"CDISCPILOT01","701","701","01-701-1118",19794,19975,"Placebo",0,52,"<65",1,"WHITE",1,"M","Y","Y","Y","Baseline",0,"BASELINE",3,1,19794,"Adas-Cog(11) Subscore","ACTOT",15,26,26,null,null,"Y","Y","","<=1",1,0,null,1,"DAYS",5015],[528,"CDISCPILOT01","701","701","01-701-1118",19794,19975,"Placebo",0,52,"<65",1,"WHITE",1,"M","Y","Y","Y","Week 16",16,"WEEK 16",10,113,19906,"Adas-Cog(11) Subscore","ACTOT",15,17,26,-9,-34.6153846154,"","Y","","85-140",112,1,85,140,"DAYS",5045],[529,"CDISCPILOT01","701","701","01-701-1118",19794,19975,"Placebo",0,52,"<65",1,"WHITE",1,"M","Y","Y","Y","Week 24",24,"WEEK 24",12,169,19962,"Adas-Cog(11) Subscore","ACTOT",15,15,26,-11,-42.3076923077,"","Y","",">140",168,1,141,null,"DAYS",5060],[530,"CDISCPILOT01","701","701","01-701-1118",19794,19975,"Placebo",0,52,"<65",1,"WHITE",1,"M","Y","Y","Y","Week 8",8,"WEEK 8",8,58,19851,"Adas-Cog(11) Subscore","ACTOT",15,19,26,-7,-26.9230769231,"","Y","","2-84",56,2,2,84,"DAYS",5030],[531,"CDISCPILOT01","701","701","01-701-1130",19769,19951,"Placebo",0,84,">80",3,"WHITE",1,"M","Y","Y","Y","Baseline",0,"BASELINE",3,1,19769,"Word Recall Task","ACITM01",1,4,4,null,null,"Y","Y","","<=1",1,0,null,1,"DAYS",5001],[532,"CDISCPILOT01","701","701","01-701-1130",19769,19951,"Placebo",0,84,">80",3,"WHITE",1,"M","Y","Y","Y","Week 16",16,"WEEK 16",10,113,19881,"Word Recall Task","ACITM01",1,5,4,1,25,"","Y","","85-140",112,1,85,140,"DAYS",5031],[533,"CDISCPILOT01","701","701","01-701-1130",19769,19951,"Placebo",0,84,">80",3,"WHITE",1,"M","Y","Y","Y","Week 24",24,"WEEK 24",12,169,19937,"Word Recall Task","ACITM01",1,4,4,0,0,"","Y","",">140",168,1,141,null,"DAYS",5046],[534,"CDISCPILOT01","701","701","01-701-1130",19769,19951,"Placebo",0,84,">80",3,"WHITE",1,"M","Y","Y","Y","Week 8",8,"WEEK 8",8,57,19825,"Word Recall Task","ACITM01",1,4,4,0,0,"","Y","","2-84",56,1,2,84,"DAYS",5016],[535,"CDISCPILOT01","701","701","01-701-1130",19769,19951,"Placebo",0,84,">80",3,"WHITE",1,"M","Y","Y","Y","Baseline",0,"BASELINE",3,1,19769,"Naming Objects And Fingers (Refer To 5 C","ACITM02",2,0,0,null,null,"Y","Y","","<=1",1,0,null,1,"DAYS",5002],[536,"CDISCPILOT01","701","701","01-701-1130",19769,19951,"Placebo",0,84,">80",3,"WHITE",1,"M","Y","Y","Y","Week 16",16,"WEEK 16",10,113,19881,"Naming Objects And Fingers (Refer To 5 C","ACITM02",2,0,0,0,null,"","Y","","85-140",112,1,85,140,"DAYS",5032],[537,"CDISCPILOT01","701","701","01-701-1130",19769,19951,"Placebo",0,84,">80",3,"WHITE",1,"M","Y","Y","Y","Week 24",24,"WEEK 24",12,169,19937,"Naming Objects And Fingers (Refer To 5 C","ACITM02",2,0,0,0,null,"","Y","",">140",168,1,141,null,"DAYS",5047],[538,"CDISCPILOT01","701","701","01-701-1130",19769,19951,"Placebo",0,84,">80",3,"WHITE",1,"M","Y","Y","Y","Week 8",8,"WEEK 8",8,57,19825,"Naming Objects And Fingers (Refer To 5 C","ACITM02",2,0,0,0,null,"","Y","","2-84",56,1,2,84,"DAYS",5017],[539,"CDISCPILOT01","701","701","01-701-1130",19769,19951,"Placebo",0,84,">80",3,"WHITE",1,"M","Y","Y","Y","Baseline",0,"BASELINE",3,1,19769,"Delayed Word Recall","ACITM03",3,10,10,null,null,"Y","Y","","<=1",1,0,null,1,"DAYS",5003],[540,"CDISCPILOT01","701","701","01-701-1130",19769,19951,"Placebo",0,84,">80",3,"WHITE",1,"M","Y","Y","Y","Week 16",16,"WEEK 16",10,113,19881,"Delayed Word Recall","ACITM03",3,10,10,0,0,"","Y","","85-140",112,1,85,140,"DAYS",5033],[541,"CDISCPILOT01","701","701","01-701-1130",19769,19951,"Placebo",0,84,">80",3,"WHITE",1,"M","Y","Y","Y","Week 24",24,"WEEK 24",12,169,19937,"Delayed Word Recall","ACITM03",3,10,10,0,0,"","Y","",">140",168,1,141,null,"DAYS",5048],[542,"CDISCPILOT01","701","701","01-701-1130",19769,19951,"Placebo",0,84,">80",3,"WHITE",1,"M","Y","Y","Y","Week 8",8,"WEEK 8",8,57,19825,"Delayed Word Recall","ACITM03",3,10,10,0,0,"","Y","","2-84",56,1,2,84,"DAYS",5018],[543,"CDISCPILOT01","701","701","01-701-1130",19769,19951,"Placebo",0,84,">80",3,"WHITE",1,"M","Y","Y","Y","Baseline",0,"BASELINE",3,1,19769,"Commands","ACITM04",4,0,0,null,null,"Y","Y","","<=1",1,0,null,1,"DAYS",5004],[544,"CDISCPILOT01","701","701","01-701-1130",19769,19951,"Placebo",0,84,">80",3,"WHITE",1,"M","Y","Y","Y","Week 16",16,"WEEK 16",10,113,19881,"Commands","ACITM04",4,0,0,0,null,"","Y","","85-140",112,1,85,140,"DAYS",5034],[545,"CDISCPILOT01","701","701","01-701-1130",19769,19951,"Placebo",0,84,">80",3,"WHITE",1,"M","Y","Y","Y","Week 24",24,"WEEK 24",12,169,19937,"Commands","ACITM04",4,0,0,0,null,"","Y","",">140",168,1,141,null,"DAYS",5049],[546,"CDISCPILOT01","701","701","01-701-1130",19769,19951,"Placebo",0,84,">80",3,"WHITE",1,"M","Y","Y","Y","Week 8",8,"WEEK 8",8,57,19825,"Commands","ACITM04",4,0,0,0,null,"","Y","","2-84",56,1,2,84,"DAYS",5019],[547,"CDISCPILOT01","701","701","01-701-1130",19769,19951,"Placebo",0,84,">80",3,"WHITE",1,"M","Y","Y","Y","Baseline",0,"BASELINE",3,1,19769,"Constructional Praxis","ACITM05",5,0,0,null,null,"Y","Y","","<=1",1,0,null,1,"DAYS",5005],[548,"CDISCPILOT01","701","701","01-701-1130",19769,19951,"Placebo",0,84,">80",3,"WHITE",1,"M","Y","Y","Y","Week 16",16,"WEEK 16",10,113,19881,"Constructional Praxis","ACITM05",5,0,0,0,null,"","Y","","85-140",112,1,85,140,"DAYS",5035],[549,"CDISCPILOT01","701","701","01-701-1130",19769,19951,"Placebo",0,84,">80",3,"WHITE",1,"M","Y","Y","Y","Week 24",24,"WEEK 24",12,169,19937,"Constructional Praxis","ACITM05",5,1,0,1,null,"","Y","",">140",168,1,141,null,"DAYS",5050],[550,"CDISCPILOT01","701","701","01-701-1130",19769,19951,"Placebo",0,84,">80",3,"WHITE",1,"M","Y","Y","Y","Week 8",8,"WEEK 8",8,57,19825,"Constructional Praxis","ACITM05",5,1,0,1,null,"","Y","","2-84",56,1,2,84,"DAYS",5020],[551,"CDISCPILOT01","701","701","01-701-1130",19769,19951,"Placebo",0,84,">80",3,"WHITE",1,"M","Y","Y","Y","Baseline",0,"BASELINE",3,1,19769,"Ideational Praxis","ACITM06",6,2,2,null,null,"Y","Y","","<=1",1,0,null,1,"DAYS",5006],[552,"CDISCPILOT01","701","701","01-701-1130",19769,19951,"Placebo",0,84,">80",3,"WHITE",1,"M","Y","Y","Y","Week 16",16,"WEEK 16",10,113,19881,"Ideational Praxis","ACITM06",6,1,2,-1,-50,"","Y","","85-140",112,1,85,140,"DAYS",5036],[553,"CDISCPILOT01","701","701","01-701-1130",19769,19951,"Placebo",0,84,">80",3,"WHITE",1,"M","Y","Y","Y","Week 24",24,"WEEK 24",12,169,19937,"Ideational Praxis","ACITM06",6,1,2,-1,-50,"","Y","",">140",168,1,141,null,"DAYS",5051],[554,"CDISCPILOT01","701","701","01-701-1130",19769,19951,"Placebo",0,84,">80",3,"WHITE",1,"M","Y","Y","Y","Week 8",8,"WEEK 8",8,57,19825,"Ideational Praxis","ACITM06",6,1,2,-1,-50,"","Y","","2-84",56,1,2,84,"DAYS",5021],[555,"CDISCPILOT01","701","701","01-701-1130",19769,19951,"Placebo",0,84,">80",3,"WHITE",1,"M","Y","Y","Y","Baseline",0,"BASELINE",3,1,19769,"Orientation","ACITM07",7,5,5,null,null,"Y","Y","","<=1",1,0,null,1,"DAYS",5007],[556,"CDISCPILOT01","701","701","01-701-1130",19769,19951,"Placebo",0,84,">80",3,"WHITE",1,"M","Y","Y","Y","Week 16",16,"WEEK 16",10,113,19881,"Orientation","ACITM07",7,3,5,-2,-40,"","Y","","85-140",112,1,85,140,"DAYS",5037],[557,"CDISCPILOT01","701","701","01-701-1130",19769,19951,"Placebo",0,84,">80",3,"WHITE",1,"M","Y","Y","Y","Week 24",24,"WEEK 24",12,169,19937,"Orientation","ACITM07",7,3,5,-2,-40,"","Y","",">140",168,1,141,null,"DAYS",5052],[558,"CDISCPILOT01","701","701","01-701-1130",19769,19951,"Placebo",0,84,">80",3,"WHITE",1,"M","Y","Y","Y","Week 8",8,"WEEK 8",8,57,19825,"Orientation","ACITM07",7,3,5,-2,-40,"","Y","","2-84",56,1,2,84,"DAYS",5022],[559,"CDISCPILOT01","701","701","01-701-1130",19769,19951,"Placebo",0,84,">80",3,"WHITE",1,"M","Y","Y","Y","Baseline",0,"BASELINE",3,1,19769,"Word Recognition","ACITM08",8,8,8,null,null,"Y","Y","","<=1",1,0,null,1,"DAYS",5008],[560,"CDISCPILOT01","701","701","01-701-1130",19769,19951,"Placebo",0,84,">80",3,"WHITE",1,"M","Y","Y","Y","Week 16",16,"WEEK 16",10,113,19881,"Word Recognition","ACITM08",8,3,8,-5,-62.5,"","Y","","85-140",112,1,85,140,"DAYS",5038],[561,"CDISCPILOT01","701","701","01-701-1130",19769,19951,"Placebo",0,84,">80",3,"WHITE",1,"M","Y","Y","Y","Week 24",24,"WEEK 24",12,169,19937,"Word Recognition","ACITM08",8,5,8,-3,-37.5,"","Y","",">140",168,1,141,null,"DAYS",5053],[562,"CDISCPILOT01","701","701","01-701-1130",19769,19951,"Placebo",0,84,">80",3,"WHITE",1,"M","Y","Y","Y","Week 8",8,"WEEK 8",8,57,19825,"Word Recognition","ACITM08",8,3,8,-5,-62.5,"","Y","","2-84",56,1,2,84,"DAYS",5023],[563,"CDISCPILOT01","701","701","01-701-1130",19769,19951,"Placebo",0,84,">80",3,"WHITE",1,"M","Y","Y","Y","Baseline",0,"BASELINE",3,1,19769,"Attention/Visual Search Task","ACITM09",9,25,25,null,null,"Y","Y","","<=1",1,0,null,1,"DAYS",5009],[564,"CDISCPILOT01","701","701","01-701-1130",19769,19951,"Placebo",0,84,">80",3,"WHITE",1,"M","Y","Y","Y","Week 16",16,"WEEK 16",10,113,19881,"Attention/Visual Search Task","ACITM09",9,24,25,-1,-4,"","Y","","85-140",112,1,85,140,"DAYS",5039],[565,"CDISCPILOT01","701","701","01-701-1130",19769,19951,"Placebo",0,84,">80",3,"WHITE",1,"M","Y","Y","Y","Week 24",24,"WEEK 24",12,169,19937,"Attention/Visual Search Task","ACITM09",9,28,25,3,12,"","Y","",">140",168,1,141,null,"DAYS",5054],[566,"CDISCPILOT01","701","701","01-701-1130",19769,19951,"Placebo",0,84,">80",3,"WHITE",1,"M","Y","Y","Y","Week 8",8,"WEEK 8",8,57,19825,"Attention/Visual Search Task","ACITM09",9,19,25,-6,-24,"","Y","","2-84",56,1,2,84,"DAYS",5024],[567,"CDISCPILOT01","701","701","01-701-1130",19769,19951,"Placebo",0,84,">80",3,"WHITE",1,"M","Y","Y","Y","Baseline",0,"BASELINE",3,1,19769,"Maze Solution","ACITM10",10,4,4,null,null,"Y","Y","","<=1",1,0,null,1,"DAYS",5010],[568,"CDISCPILOT01","701","701","01-701-1130",19769,19951,"Placebo",0,84,">80",3,"WHITE",1,"M","Y","Y","Y","Week 16",16,"WEEK 16",10,113,19881,"Maze Solution","ACITM10",10,7,4,3,75,"","Y","","85-140",112,1,85,140,"DAYS",5040],[569,"CDISCPILOT01","701","701","01-701-1130",19769,19951,"Placebo",0,84,">80",3,"WHITE",1,"M","Y","Y","Y","Week 24",24,"WEEK 24",12,169,19937,"Maze Solution","ACITM10",10,5,4,1,25,"","Y","",">140",168,1,141,null,"DAYS",5055],[570,"CDISCPILOT01","701","701","01-701-1130",19769,19951,"Placebo",0,84,">80",3,"WHITE",1,"M","Y","Y","Y","Week 8",8,"WEEK 8",8,57,19825,"Maze Solution","ACITM10",10,8,4,4,100,"","Y","","2-84",56,1,2,84,"DAYS",5025],[571,"CDISCPILOT01","701","701","01-701-1130",19769,19951,"Placebo",0,84,">80",3,"WHITE",1,"M","Y","Y","Y","Baseline",0,"BASELINE",3,1,19769,"Spoken Language Ability","ACITM11",11,0,0,null,null,"Y","Y","","<=1",1,0,null,1,"DAYS",5011],[572,"CDISCPILOT01","701","701","01-701-1130",19769,19951,"Placebo",0,84,">80",3,"WHITE",1,"M","Y","Y","Y","Week 16",16,"WEEK 16",10,113,19881,"Spoken Language Ability","ACITM11",11,0,0,0,null,"","Y","","85-140",112,1,85,140,"DAYS",5041],[573,"CDISCPILOT01","701","701","01-701-1130",19769,19951,"Placebo",0,84,">80",3,"WHITE",1,"M","Y","Y","Y","Week 24",24,"WEEK 24",12,169,19937,"Spoken Language Ability","ACITM11",11,0,0,0,null,"","Y","",">140",168,1,141,null,"DAYS",5056],[574,"CDISCPILOT01","701","701","01-701-1130",19769,19951,"Placebo",0,84,">80",3,"WHITE",1,"M","Y","Y","Y","Week 8",8,"WEEK 8",8,57,19825,"Spoken Language Ability","ACITM11",11,0,0,0,null,"","Y","","2-84",56,1,2,84,"DAYS",5026],[575,"CDISCPILOT01","701","701","01-701-1130",19769,19951,"Placebo",0,84,">80",3,"WHITE",1,"M","Y","Y","Y","Baseline",0,"BASELINE",3,1,19769,"Comprehension Of Spoken Language","ACITM12",12,0,0,null,null,"Y","Y","","<=1",1,0,null,1,"DAYS",5012],[576,"CDISCPILOT01","701","701","01-701-1130",19769,19951,"Placebo",0,84,">80",3,"WHITE",1,"M","Y","Y","Y","Week 16",16,"WEEK 16",10,113,19881,"Comprehension Of Spoken Language","ACITM12",12,0,0,0,null,"","Y","","85-140",112,1,85,140,"DAYS",5042],[577,"CDISCPILOT01","701","701","01-701-1130",19769,19951,"Placebo",0,84,">80",3,"WHITE",1,"M","Y","Y","Y","Week 24",24,"WEEK 24",12,169,19937,"Comprehension Of Spoken Language","ACITM12",12,0,0,0,null,"","Y","",">140",168,1,141,null,"DAYS",5057],[578,"CDISCPILOT01","701","701","01-701-1130",19769,19951,"Placebo",0,84,">80",3,"WHITE",1,"M","Y","Y","Y","Week 8",8,"WEEK 8",8,57,19825,"Comprehension Of Spoken Language","ACITM12",12,0,0,0,null,"","Y","","2-84",56,1,2,84,"DAYS",5027],[579,"CDISCPILOT01","701","701","01-701-1130",19769,19951,"Placebo",0,84,">80",3,"WHITE",1,"M","Y","Y","Y","Baseline",0,"BASELINE",3,1,19769,"Word Finding Difficulty In Spontaneous S","ACITM13",13,0,0,null,null,"Y","Y","","<=1",1,0,null,1,"DAYS",5013],[580,"CDISCPILOT01","701","701","01-701-1130",19769,19951,"Placebo",0,84,">80",3,"WHITE",1,"M","Y","Y","Y","Week 16",16,"WEEK 16",10,113,19881,"Word Finding Difficulty In Spontaneous S","ACITM13",13,0,0,0,null,"","Y","","85-140",112,1,85,140,"DAYS",5043],[581,"CDISCPILOT01","701","701","01-701-1130",19769,19951,"Placebo",0,84,">80",3,"WHITE",1,"M","Y","Y","Y","Week 24",24,"WEEK 24",12,169,19937,"Word Finding Difficulty In Spontaneous S","ACITM13",13,0,0,0,null,"","Y","",">140",168,1,141,null,"DAYS",5058],[582,"CDISCPILOT01","701","701","01-701-1130",19769,19951,"Placebo",0,84,">80",3,"WHITE",1,"M","Y","Y","Y","Week 8",8,"WEEK 8",8,57,19825,"Word Finding Difficulty In Spontaneous S","ACITM13",13,0,0,0,null,"","Y","","2-84",56,1,2,84,"DAYS",5028],[583,"CDISCPILOT01","701","701","01-701-1130",19769,19951,"Placebo",0,84,">80",3,"WHITE",1,"M","Y","Y","Y","Baseline",0,"BASELINE",3,1,19769,"Recall Of Test Instructions","ACITM14",14,0,0,null,null,"Y","Y","","<=1",1,0,null,1,"DAYS",5014],[584,"CDISCPILOT01","701","701","01-701-1130",19769,19951,"Placebo",0,84,">80",3,"WHITE",1,"M","Y","Y","Y","Week 16",16,"WEEK 16",10,113,19881,"Recall Of Test Instructions","ACITM14",14,0,0,0,null,"","Y","","85-140",112,1,85,140,"DAYS",5044],[585,"CDISCPILOT01","701","701","01-701-1130",19769,19951,"Placebo",0,84,">80",3,"WHITE",1,"M","Y","Y","Y","Week 24",24,"WEEK 24",12,169,19937,"Recall Of Test Instructions","ACITM14",14,0,0,0,null,"","Y","",">140",168,1,141,null,"DAYS",5059],[586,"CDISCPILOT01","701","701","01-701-1130",19769,19951,"Placebo",0,84,">80",3,"WHITE",1,"M","Y","Y","Y","Week 8",8,"WEEK 8",8,57,19825,"Recall Of Test Instructions","ACITM14",14,0,0,0,null,"","Y","","2-84",56,1,2,84,"DAYS",5029],[587,"CDISCPILOT01","701","701","01-701-1130",19769,19951,"Placebo",0,84,">80",3,"WHITE",1,"M","Y","Y","Y","Baseline",0,"BASELINE",3,1,19769,"Adas-Cog(11) Subscore","ACTOT",15,19,19,null,null,"Y","Y","","<=1",1,0,null,1,"DAYS",5015],[588,"CDISCPILOT01","701","701","01-701-1130",19769,19951,"Placebo",0,84,">80",3,"WHITE",1,"M","Y","Y","Y","Week 16",16,"WEEK 16",10,113,19881,"Adas-Cog(11) Subscore","ACTOT",15,12,19,-7,-36.8421052632,"","Y","","85-140",112,1,85,140,"DAYS",5045],[589,"CDISCPILOT01","701","701","01-701-1130",19769,19951,"Placebo",0,84,">80",3,"WHITE",1,"M","Y","Y","Y","Week 24",24,"WEEK 24",12,169,19937,"Adas-Cog(11) Subscore","ACTOT",15,14,19,-5,-26.3157894737,"","Y","",">140",168,1,141,null,"DAYS",5060],[590,"CDISCPILOT01","701","701","01-701-1130",19769,19951,"Placebo",0,84,">80",3,"WHITE",1,"M","Y","Y","Y","Week 8",8,"WEEK 8",8,57,19825,"Adas-Cog(11) Subscore","ACTOT",15,12,19,-7,-36.8421052632,"","Y","","2-84",56,1,2,84,"DAYS",5030],[591,"CDISCPILOT01","701","701","01-701-1133",19294,19476,"Xanomeline High Dose",81,81,">80",3,"WHITE",1,"F","Y","Y","Y","Baseline",0,"BASELINE",3,1,19294,"Word Recall Task","ACITM01",1,7,7,null,null,"Y","Y","","<=1",1,0,null,1,"DAYS",5001],[592,"CDISCPILOT01","701","701","01-701-1133",19294,19476,"Xanomeline High Dose",81,81,">80",3,"WHITE",1,"F","Y","Y","Y","Week 16",16,"WEEK 16",10,114,19407,"Word Recall Task","ACITM01",1,6,7,-1,-14.2857142857,"","Y","","85-140",112,2,85,140,"DAYS",5031],[593,"CDISCPILOT01","701","701","01-701-1133",19294,19476,"Xanomeline High Dose",81,81,">80",3,"WHITE",1,"F","Y","Y","Y","Week 24",24,"WEEK 24",12,173,19466,"Word Recall Task","ACITM01",1,6,7,-1,-14.2857142857,"","Y","",">140",168,5,141,null,"DAYS",5046],[594,"CDISCPILOT01","701","701","01-701-1133",19294,19476,"Xanomeline High Dose",81,81,">80",3,"WHITE",1,"F","Y","Y","Y","Week 8",8,"WEEK 8",8,58,19351,"Word Recall Task","ACITM01",1,6,7,-1,-14.2857142857,"","Y","","2-84",56,2,2,84,"DAYS",5016],[595,"CDISCPILOT01","701","701","01-701-1133",19294,19476,"Xanomeline High Dose",81,81,">80",3,"WHITE",1,"F","Y","Y","Y","Baseline",0,"BASELINE",3,1,19294,"Naming Objects And Fingers (Refer To 5 C","ACITM02",2,0,0,null,null,"Y","Y","","<=1",1,0,null,1,"DAYS",5002],[596,"CDISCPILOT01","701","701","01-701-1133",19294,19476,"Xanomeline High Dose",81,81,">80",3,"WHITE",1,"F","Y","Y","Y","Week 16",16,"WEEK 16",10,114,19407,"Naming Objects And Fingers (Refer To 5 C","ACITM02",2,0,0,0,null,"","Y","","85-140",112,2,85,140,"DAYS",5032],[597,"CDISCPILOT01","701","701","01-701-1133",19294,19476,"Xanomeline High Dose",81,81,">80",3,"WHITE",1,"F","Y","Y","Y","Week 24",24,"WEEK 24",12,173,19466,"Naming Objects And Fingers (Refer To 5 C","ACITM02",2,0,0,0,null,"","Y","",">140",168,5,141,null,"DAYS",5047],[598,"CDISCPILOT01","701","701","01-701-1133",19294,19476,"Xanomeline High Dose",81,81,">80",3,"WHITE",1,"F","Y","Y","Y","Week 8",8,"WEEK 8",8,58,19351,"Naming Objects And Fingers (Refer To 5 C","ACITM02",2,0,0,0,null,"","Y","","2-84",56,2,2,84,"DAYS",5017],[599,"CDISCPILOT01","701","701","01-701-1133",19294,19476,"Xanomeline High Dose",81,81,">80",3,"WHITE",1,"F","Y","Y","Y","Baseline",0,"BASELINE",3,1,19294,"Delayed Word Recall","ACITM03",3,9,9,null,null,"Y","Y","","<=1",1,0,null,1,"DAYS",5003],[600,"CDISCPILOT01","701","701","01-701-1133",19294,19476,"Xanomeline High Dose",81,81,">80",3,"WHITE",1,"F","Y","Y","Y","Week 16",16,"WEEK 16",10,114,19407,"Delayed Word Recall","ACITM03",3,8,9,-1,-11.1111111111,"","Y","","85-140",112,2,85,140,"DAYS",5033],[601,"CDISCPILOT01","701","701","01-701-1133",19294,19476,"Xanomeline High Dose",81,81,">80",3,"WHITE",1,"F","Y","Y","Y","Week 24",24,"WEEK 24",12,173,19466,"Delayed Word Recall","ACITM03",3,10,9,1,11.1111111111,"","Y","",">140",168,5,141,null,"DAYS",5048],[602,"CDISCPILOT01","701","701","01-701-1133",19294,19476,"Xanomeline High Dose",81,81,">80",3,"WHITE",1,"F","Y","Y","Y","Week 8",8,"WEEK 8",8,58,19351,"Delayed Word Recall","ACITM03",3,9,9,0,0,"","Y","","2-84",56,2,2,84,"DAYS",5018],[603,"CDISCPILOT01","701","701","01-701-1133",19294,19476,"Xanomeline High Dose",81,81,">80",3,"WHITE",1,"F","Y","Y","Y","Baseline",0,"BASELINE",3,1,19294,"Commands","ACITM04",4,0,0,null,null,"Y","Y","","<=1",1,0,null,1,"DAYS",5004],[604,"CDISCPILOT01","701","701","01-701-1133",19294,19476,"Xanomeline High Dose",81,81,">80",3,"WHITE",1,"F","Y","Y","Y","Week 16",16,"WEEK 16",10,114,19407,"Commands","ACITM04",4,0,0,0,null,"","Y","","85-140",112,2,85,140,"DAYS",5034],[605,"CDISCPILOT01","701","701","01-701-1133",19294,19476,"Xanomeline High Dose",81,81,">80",3,"WHITE",1,"F","Y","Y","Y","Week 24",24,"WEEK 24",12,173,19466,"Commands","ACITM04",4,1,0,1,null,"","Y","",">140",168,5,141,null,"DAYS",5049],[606,"CDISCPILOT01","701","701","01-701-1133",19294,19476,"Xanomeline High Dose",81,81,">80",3,"WHITE",1,"F","Y","Y","Y","Week 8",8,"WEEK 8",8,58,19351,"Commands","ACITM04",4,0,0,0,null,"","Y","","2-84",56,2,2,84,"DAYS",5019],[607,"CDISCPILOT01","701","701","01-701-1133",19294,19476,"Xanomeline High Dose",81,81,">80",3,"WHITE",1,"F","Y","Y","Y","Baseline",0,"BASELINE",3,1,19294,"Constructional Praxis","ACITM05",5,1,1,null,null,"Y","Y","","<=1",1,0,null,1,"DAYS",5005],[608,"CDISCPILOT01","701","701","01-701-1133",19294,19476,"Xanomeline High Dose",81,81,">80",3,"WHITE",1,"F","Y","Y","Y","Week 16",16,"WEEK 16",10,114,19407,"Constructional Praxis","ACITM05",5,1,1,0,0,"","Y","","85-140",112,2,85,140,"DAYS",5035],[609,"CDISCPILOT01","701","701","01-701-1133",19294,19476,"Xanomeline High Dose",81,81,">80",3,"WHITE",1,"F","Y","Y","Y","Week 24",24,"WEEK 24",12,173,19466,"Constructional Praxis","ACITM05",5,3,1,2,200,"","Y","",">140",168,5,141,null,"DAYS",5050],[610,"CDISCPILOT01","701","701","01-701-1133",19294,19476,"Xanomeline High Dose",81,81,">80",3,"WHITE",1,"F","Y","Y","Y","Week 8",8,"WEEK 8",8,58,19351,"Constructional Praxis","ACITM05",5,1,1,0,0,"","Y","","2-84",56,2,2,84,"DAYS",5020],[611,"CDISCPILOT01","701","701","01-701-1133",19294,19476,"Xanomeline High Dose",81,81,">80",3,"WHITE",1,"F","Y","Y","Y","Baseline",0,"BASELINE",3,1,19294,"Ideational Praxis","ACITM06",6,0,0,null,null,"Y","Y","","<=1",1,0,null,1,"DAYS",5006],[612,"CDISCPILOT01","701","701","01-701-1133",19294,19476,"Xanomeline High Dose",81,81,">80",3,"WHITE",1,"F","Y","Y","Y","Week 16",16,"WEEK 16",10,114,19407,"Ideational Praxis","ACITM06",6,0,0,0,null,"","Y","","85-140",112,2,85,140,"DAYS",5036],[613,"CDISCPILOT01","701","701","01-701-1133",19294,19476,"Xanomeline High Dose",81,81,">80",3,"WHITE",1,"F","Y","Y","Y","Week 24",24,"WEEK 24",12,173,19466,"Ideational Praxis","ACITM06",6,0,0,0,null,"","Y","",">140",168,5,141,null,"DAYS",5051],[614,"CDISCPILOT01","701","701","01-701-1133",19294,19476,"Xanomeline High Dose",81,81,">80",3,"WHITE",1,"F","Y","Y","Y","Week 8",8,"WEEK 8",8,58,19351,"Ideational Praxis","ACITM06",6,0,0,0,null,"","Y","","2-84",56,2,2,84,"DAYS",5021],[615,"CDISCPILOT01","701","701","01-701-1133",19294,19476,"Xanomeline High Dose",81,81,">80",3,"WHITE",1,"F","Y","Y","Y","Baseline",0,"BASELINE",3,1,19294,"Orientation","ACITM07",7,2,2,null,null,"Y","Y","","<=1",1,0,null,1,"DAYS",5007],[616,"CDISCPILOT01","701","701","01-701-1133",19294,19476,"Xanomeline High Dose",81,81,">80",3,"WHITE",1,"F","Y","Y","Y","Week 16",16,"WEEK 16",10,114,19407,"Orientation","ACITM07",7,5,2,3,150,"","Y","","85-140",112,2,85,140,"DAYS",5037],[617,"CDISCPILOT01","701","701","01-701-1133",19294,19476,"Xanomeline High Dose",81,81,">80",3,"WHITE",1,"F","Y","Y","Y","Week 24",24,"WEEK 24",12,173,19466,"Orientation","ACITM07",7,4,2,2,100,"","Y","",">140",168,5,141,null,"DAYS",5052],[618,"CDISCPILOT01","701","701","01-701-1133",19294,19476,"Xanomeline High Dose",81,81,">80",3,"WHITE",1,"F","Y","Y","Y","Week 8",8,"WEEK 8",8,58,19351,"Orientation","ACITM07",7,4,2,2,100,"","Y","","2-84",56,2,2,84,"DAYS",5022],[619,"CDISCPILOT01","701","701","01-701-1133",19294,19476,"Xanomeline High Dose",81,81,">80",3,"WHITE",1,"F","Y","Y","Y","Baseline",0,"BASELINE",3,1,19294,"Word Recognition","ACITM08",8,2,2,null,null,"Y","Y","","<=1",1,0,null,1,"DAYS",5008],[620,"CDISCPILOT01","701","701","01-701-1133",19294,19476,"Xanomeline High Dose",81,81,">80",3,"WHITE",1,"F","Y","Y","Y","Week 16",16,"WEEK 16",10,114,19407,"Word Recognition","ACITM08",8,5,2,3,150,"","Y","","85-140",112,2,85,140,"DAYS",5038],[621,"CDISCPILOT01","701","701","01-701-1133",19294,19476,"Xanomeline High Dose",81,81,">80",3,"WHITE",1,"F","Y","Y","Y","Week 24",24,"WEEK 24",12,173,19466,"Word Recognition","ACITM08",8,4,2,2,100,"","Y","",">140",168,5,141,null,"DAYS",5053],[622,"CDISCPILOT01","701","701","01-701-1133",19294,19476,"Xanomeline High Dose",81,81,">80",3,"WHITE",1,"F","Y","Y","Y","Week 8",8,"WEEK 8",8,58,19351,"Word Recognition","ACITM08",8,3,2,1,50,"","Y","","2-84",56,2,2,84,"DAYS",5023],[623,"CDISCPILOT01","701","701","01-701-1133",19294,19476,"Xanomeline High Dose",81,81,">80",3,"WHITE",1,"F","Y","Y","Y","Baseline",0,"BASELINE",3,1,19294,"Attention/Visual Search Task","ACITM09",9,24,24,null,null,"Y","Y","","<=1",1,0,null,1,"DAYS",5009],[624,"CDISCPILOT01","701","701","01-701-1133",19294,19476,"Xanomeline High Dose",81,81,">80",3,"WHITE",1,"F","Y","Y","Y","Week 16",16,"WEEK 16",10,114,19407,"Attention/Visual Search Task","ACITM09",9,21,24,-3,-12.5,"","Y","","85-140",112,2,85,140,"DAYS",5039],[625,"CDISCPILOT01","701","701","01-701-1133",19294,19476,"Xanomeline High Dose",81,81,">80",3,"WHITE",1,"F","Y","Y","Y","Week 24",24,"WEEK 24",12,173,19466,"Attention/Visual Search Task","ACITM09",9,22,24,-2,-8.33333333333,"","Y","",">140",168,5,141,null,"DAYS",5054],[626,"CDISCPILOT01","701","701","01-701-1133",19294,19476,"Xanomeline High Dose",81,81,">80",3,"WHITE",1,"F","Y","Y","Y","Week 8",8,"WEEK 8",8,58,19351,"Attention/Visual Search Task","ACITM09",9,22,24,-2,-8.33333333333,"","Y","","2-84",56,2,2,84,"DAYS",5024],[627,"CDISCPILOT01","701","701","01-701-1133",19294,19476,"Xanomeline High Dose",81,81,">80",3,"WHITE",1,"F","Y","Y","Y","Baseline",0,"BASELINE",3,1,19294,"Maze Solution","ACITM10",10,12,12,null,null,"Y","Y","","<=1",1,0,null,1,"DAYS",5010],[628,"CDISCPILOT01","701","701","01-701-1133",19294,19476,"Xanomeline High Dose",81,81,">80",3,"WHITE",1,"F","Y","Y","Y","Week 16",16,"WEEK 16",10,114,19407,"Maze Solution","ACITM10",10,16,12,4,33.3333333333,"","Y","","85-140",112,2,85,140,"DAYS",5040],[629,"CDISCPILOT01","701","701","01-701-1133",19294,19476,"Xanomeline High Dose",81,81,">80",3,"WHITE",1,"F","Y","Y","Y","Week 24",24,"WEEK 24",12,173,19466,"Maze Solution","ACITM10",10,14,12,2,16.6666666667,"","Y","",">140",168,5,141,null,"DAYS",5055],[630,"CDISCPILOT01","701","701","01-701-1133",19294,19476,"Xanomeline High Dose",81,81,">80",3,"WHITE",1,"F","Y","Y","Y","Week 8",8,"WEEK 8",8,58,19351,"Maze Solution","ACITM10",10,240,12,228,1900,"","Y","","2-84",56,2,2,84,"DAYS",5025],[631,"CDISCPILOT01","701","701","01-701-1133",19294,19476,"Xanomeline High Dose",81,81,">80",3,"WHITE",1,"F","Y","Y","Y","Baseline",0,"BASELINE",3,1,19294,"Spoken Language Ability","ACITM11",11,0,0,null,null,"Y","Y","","<=1",1,0,null,1,"DAYS",5011],[632,"CDISCPILOT01","701","701","01-701-1133",19294,19476,"Xanomeline High Dose",81,81,">80",3,"WHITE",1,"F","Y","Y","Y","Week 16",16,"WEEK 16",10,114,19407,"Spoken Language Ability","ACITM11",11,1,0,1,null,"","Y","","85-140",112,2,85,140,"DAYS",5041],[633,"CDISCPILOT01","701","701","01-701-1133",19294,19476,"Xanomeline High Dose",81,81,">80",3,"WHITE",1,"F","Y","Y","Y","Week 24",24,"WEEK 24",12,173,19466,"Spoken Language Ability","ACITM11",11,0,0,0,null,"","Y","",">140",168,5,141,null,"DAYS",5056],[634,"CDISCPILOT01","701","701","01-701-1133",19294,19476,"Xanomeline High Dose",81,81,">80",3,"WHITE",1,"F","Y","Y","Y","Week 8",8,"WEEK 8",8,58,19351,"Spoken Language Ability","ACITM11",11,1,0,1,null,"","Y","","2-84",56,2,2,84,"DAYS",5026],[635,"CDISCPILOT01","701","701","01-701-1133",19294,19476,"Xanomeline High Dose",81,81,">80",3,"WHITE",1,"F","Y","Y","Y","Baseline",0,"BASELINE",3,1,19294,"Comprehension Of Spoken Language","ACITM12",12,0,0,null,null,"Y","Y","","<=1",1,0,null,1,"DAYS",5012],[636,"CDISCPILOT01","701","701","01-701-1133",19294,19476,"Xanomeline High Dose",81,81,">80",3,"WHITE",1,"F","Y","Y","Y","Week 16",16,"WEEK 16",10,114,19407,"Comprehension Of Spoken Language","ACITM12",12,2,0,2,null,"","Y","","85-140",112,2,85,140,"DAYS",5042],[637,"CDISCPILOT01","701","701","01-701-1133",19294,19476,"Xanomeline High Dose",81,81,">80",3,"WHITE",1,"F","Y","Y","Y","Week 24",24,"WEEK 24",12,173,19466,"Comprehension Of Spoken Language","ACITM12",12,0,0,0,null,"","Y","",">140",168,5,141,null,"DAYS",5057],[638,"CDISCPILOT01","701","701","01-701-1133",19294,19476,"Xanomeline High Dose",81,81,">80",3,"WHITE",1,"F","Y","Y","Y","Week 8",8,"WEEK 8",8,58,19351,"Comprehension Of Spoken Language","ACITM12",12,2,0,2,null,"","Y","","2-84",56,2,2,84,"DAYS",5027],[639,"CDISCPILOT01","701","701","01-701-1133",19294,19476,"Xanomeline High Dose",81,81,">80",3,"WHITE",1,"F","Y","Y","Y","Baseline",0,"BASELINE",3,1,19294,"Word Finding Difficulty In Spontaneous S","ACITM13",13,1,1,null,null,"Y","Y","","<=1",1,0,null,1,"DAYS",5013],[640,"CDISCPILOT01","701","701","01-701-1133",19294,19476,"Xanomeline High Dose",81,81,">80",3,"WHITE",1,"F","Y","Y","Y","Week 16",16,"WEEK 16",10,114,19407,"Word Finding Difficulty In Spontaneous S","ACITM13",13,1,1,0,0,"","Y","","85-140",112,2,85,140,"DAYS",5043],[641,"CDISCPILOT01","701","701","01-701-1133",19294,19476,"Xanomeline High Dose",81,81,">80",3,"WHITE",1,"F","Y","Y","Y","Week 24",24,"WEEK 24",12,173,19466,"Word Finding Difficulty In Spontaneous S","ACITM13",13,0,1,-1,-100,"","Y","",">140",168,5,141,null,"DAYS",5058],[642,"CDISCPILOT01","701","701","01-701-1133",19294,19476,"Xanomeline High Dose",81,81,">80",3,"WHITE",1,"F","Y","Y","Y","Week 8",8,"WEEK 8",8,58,19351,"Word Finding Difficulty In Spontaneous S","ACITM13",13,1,1,0,0,"","Y","","2-84",56,2,2,84,"DAYS",5028],[643,"CDISCPILOT01","701","701","01-701-1133",19294,19476,"Xanomeline High Dose",81,81,">80",3,"WHITE",1,"F","Y","Y","Y","Baseline",0,"BASELINE",3,1,19294,"Recall Of Test Instructions","ACITM14",14,0,0,null,null,"Y","Y","","<=1",1,0,null,1,"DAYS",5014],[644,"CDISCPILOT01","701","701","01-701-1133",19294,19476,"Xanomeline High Dose",81,81,">80",3,"WHITE",1,"F","Y","Y","Y","Week 16",16,"WEEK 16",10,114,19407,"Recall Of Test Instructions","ACITM14",14,1,0,1,null,"","Y","","85-140",112,2,85,140,"DAYS",5044],[645,"CDISCPILOT01","701","701","01-701-1133",19294,19476,"Xanomeline High Dose",81,81,">80",3,"WHITE",1,"F","Y","Y","Y","Week 24",24,"WEEK 24",12,173,19466,"Recall Of Test Instructions","ACITM14",14,0,0,0,null,"","Y","",">140",168,5,141,null,"DAYS",5059],[646,"CDISCPILOT01","701","701","01-701-1133",19294,19476,"Xanomeline High Dose",81,81,">80",3,"WHITE",1,"F","Y","Y","Y","Week 8",8,"WEEK 8",8,58,19351,"Recall Of Test Instructions","ACITM14",14,2,0,2,null,"","Y","","2-84",56,2,2,84,"DAYS",5029],[647,"CDISCPILOT01","701","701","01-701-1133",19294,19476,"Xanomeline High Dose",81,81,">80",3,"WHITE",1,"F","Y","Y","Y","Baseline",0,"BASELINE",3,1,19294,"Adas-Cog(11) Subscore","ACTOT",15,13,13,null,null,"Y","Y","","<=1",1,0,null,1,"DAYS",5015],[648,"CDISCPILOT01","701","701","01-701-1133",19294,19476,"Xanomeline High Dose",81,81,">80",3,"WHITE",1,"F","Y","Y","Y","Week 16",16,"WEEK 16",10,114,19407,"Adas-Cog(11) Subscore","ACTOT",15,22,13,9,69.2307692308,"","Y","","85-140",112,2,85,140,"DAYS",5045],[649,"CDISCPILOT01","701","701","01-701-1133",19294,19476,"Xanomeline High Dose",81,81,">80",3,"WHITE",1,"F","Y","Y","Y","Week 24",24,"WEEK 24",12,173,19466,"Adas-Cog(11) Subscore","ACTOT",15,18,13,5,38.4615384615,"","Y","",">140",168,5,141,null,"DAYS",5060],[650,"CDISCPILOT01","701","701","01-701-1133",19294,19476,"Xanomeline High Dose",81,81,">80",3,"WHITE",1,"F","Y","Y","Y","Week 8",8,"WEEK 8",8,58,19351,"Adas-Cog(11) Subscore","ACTOT",15,20,13,7,53.8461538462,"","Y","","2-84",56,2,2,84,"DAYS",5030],[651,"CDISCPILOT01","701","701","01-701-1146",19498,19535,"Xanomeline High Dose",81,75,"65-80",2,"WHITE",1,"F","Y","Y","N","Baseline",0,"BASELINE",3,1,19498,"Word Recall Task","ACITM01",1,5,5,null,null,"Y","Y","","<=1",1,0,null,1,"DAYS",5001],[652,"CDISCPILOT01","701","701","01-701-1146",19498,19535,"Xanomeline High Dose",81,75,"65-80",2,"WHITE",1,"F","Y","Y","N","Week 8",8,"WEEK 6",7,42,19539,"Word Recall Task","ACITM01",1,4,5,-1,-20,"","Y","","2-84",56,14,2,84,"DAYS",5016],[653,"CDISCPILOT01","701","701","01-701-1146",19498,19535,"Xanomeline High Dose",81,75,"65-80",2,"WHITE",1,"F","Y","Y","N","Baseline",0,"BASELINE",3,1,19498,"Naming Objects And Fingers (Refer To 5 C","ACITM02",2,0,0,null,null,"Y","Y","","<=1",1,0,null,1,"DAYS",5002],[654,"CDISCPILOT01","701","701","01-701-1146",19498,19535,"Xanomeline High Dose",81,75,"65-80",2,"WHITE",1,"F","Y","Y","N","Week 8",8,"WEEK 6",7,42,19539,"Naming Objects And Fingers (Refer To 5 C","ACITM02",2,0,0,0,null,"","Y","","2-84",56,14,2,84,"DAYS",5017],[655,"CDISCPILOT01","701","701","01-701-1146",19498,19535,"Xanomeline High Dose",81,75,"65-80",2,"WHITE",1,"F","Y","Y","N","Baseline",0,"BASELINE",3,1,19498,"Delayed Word Recall","ACITM03",3,9,9,null,null,"Y","Y","","<=1",1,0,null,1,"DAYS",5003],[656,"CDISCPILOT01","701","701","01-701-1146",19498,19535,"Xanomeline High Dose",81,75,"65-80",2,"WHITE",1,"F","Y","Y","N","Week 8",8,"WEEK 6",7,42,19539,"Delayed Word Recall","ACITM03",3,9,9,0,0,"","Y","","2-84",56,14,2,84,"DAYS",5018],[657,"CDISCPILOT01","701","701","01-701-1146",19498,19535,"Xanomeline High Dose",81,75,"65-80",2,"WHITE",1,"F","Y","Y","N","Baseline",0,"BASELINE",3,1,19498,"Commands","ACITM04",4,0,0,null,null,"Y","Y","","<=1",1,0,null,1,"DAYS",5004],[658,"CDISCPILOT01","701","701","01-701-1146",19498,19535,"Xanomeline High Dose",81,75,"65-80",2,"WHITE",1,"F","Y","Y","N","Week 8",8,"WEEK 6",7,42,19539,"Commands","ACITM04",4,0,0,0,null,"","Y","","2-84",56,14,2,84,"DAYS",5019],[659,"CDISCPILOT01","701","701","01-701-1146",19498,19535,"Xanomeline High Dose",81,75,"65-80",2,"WHITE",1,"F","Y","Y","N","Baseline",0,"BASELINE",3,1,19498,"Constructional Praxis","ACITM05",5,0,0,null,null,"Y","Y","","<=1",1,0,null,1,"DAYS",5005],[660,"CDISCPILOT01","701","701","01-701-1146",19498,19535,"Xanomeline High Dose",81,75,"65-80",2,"WHITE",1,"F","Y","Y","N","Week 8",8,"WEEK 6",7,42,19539,"Constructional Praxis","ACITM05",5,0,0,0,null,"","Y","","2-84",56,14,2,84,"DAYS",5020],[661,"CDISCPILOT01","701","701","01-701-1146",19498,19535,"Xanomeline High Dose",81,75,"65-80",2,"WHITE",1,"F","Y","Y","N","Baseline",0,"BASELINE",3,1,19498,"Ideational Praxis","ACITM06",6,1,1,null,null,"Y","Y","","<=1",1,0,null,1,"DAYS",5006],[662,"CDISCPILOT01","701","701","01-701-1146",19498,19535,"Xanomeline High Dose",81,75,"65-80",2,"WHITE",1,"F","Y","Y","N","Week 8",8,"WEEK 6",7,42,19539,"Ideational Praxis","ACITM06",6,1,1,0,0,"","Y","","2-84",56,14,2,84,"DAYS",5021],[663,"CDISCPILOT01","701","701","01-701-1146",19498,19535,"Xanomeline High Dose",81,75,"65-80",2,"WHITE",1,"F","Y","Y","N","Baseline",0,"BASELINE",3,1,19498,"Orientation","ACITM07",7,0,0,null,null,"Y","Y","","<=1",1,0,null,1,"DAYS",5007],[664,"CDISCPILOT01","701","701","01-701-1146",19498,19535,"Xanomeline High Dose",81,75,"65-80",2,"WHITE",1,"F","Y","Y","N","Week 8",8,"WEEK 6",7,42,19539,"Orientation","ACITM07",7,0,0,0,null,"","Y","","2-84",56,14,2,84,"DAYS",5022],[665,"CDISCPILOT01","701","701","01-701-1146",19498,19535,"Xanomeline High Dose",81,75,"65-80",2,"WHITE",1,"F","Y","Y","N","Baseline",0,"BASELINE",3,1,19498,"Word Recognition","ACITM08",8,4,4,null,null,"Y","Y","","<=1",1,0,null,1,"DAYS",5008],[666,"CDISCPILOT01","701","701","01-701-1146",19498,19535,"Xanomeline High Dose",81,75,"65-80",2,"WHITE",1,"F","Y","Y","N","Week 8",8,"WEEK 6",7,42,19539,"Word Recognition","ACITM08",8,3,4,-1,-25,"","Y","","2-84",56,14,2,84,"DAYS",5023],[667,"CDISCPILOT01","701","701","01-701-1146",19498,19535,"Xanomeline High Dose",81,75,"65-80",2,"WHITE",1,"F","Y","Y","N","Baseline",0,"BASELINE",3,1,19498,"Attention/Visual Search Task","ACITM09",9,17,17,null,null,"Y","Y","","<=1",1,0,null,1,"DAYS",5009],[668,"CDISCPILOT01","701","701","01-701-1146",19498,19535,"Xanomeline High Dose",81,75,"65-80",2,"WHITE",1,"F","Y","Y","N","Week 8",8,"WEEK 6",7,42,19539,"Attention/Visual Search Task","ACITM09",9,19,17,2,11.7647058824,"","Y","","2-84",56,14,2,84,"DAYS",5024],[669,"CDISCPILOT01","701","701","01-701-1146",19498,19535,"Xanomeline High Dose",81,75,"65-80",2,"WHITE",1,"F","Y","Y","N","Baseline",0,"BASELINE",3,1,19498,"Maze Solution","ACITM10",10,3,3,null,null,"Y","Y","","<=1",1,0,null,1,"DAYS",5010],[670,"CDISCPILOT01","701","701","01-701-1146",19498,19535,"Xanomeline High Dose",81,75,"65-80",2,"WHITE",1,"F","Y","Y","N","Week 8",8,"WEEK 6",7,42,19539,"Maze Solution","ACITM10",10,13,3,10,333.333333333,"","Y","","2-84",56,14,2,84,"DAYS",5025],[671,"CDISCPILOT01","701","701","01-701-1146",19498,19535,"Xanomeline High Dose",81,75,"65-80",2,"WHITE",1,"F","Y","Y","N","Baseline",0,"BASELINE",3,1,19498,"Spoken Language Ability","ACITM11",11,1,1,null,null,"Y","Y","","<=1",1,0,null,1,"DAYS",5011],[672,"CDISCPILOT01","701","701","01-701-1146",19498,19535,"Xanomeline High Dose",81,75,"65-80",2,"WHITE",1,"F","Y","Y","N","Week 8",8,"WEEK 6",7,42,19539,"Spoken Language Ability","ACITM11",11,0,1,-1,-100,"","Y","","2-84",56,14,2,84,"DAYS",5026],[673,"CDISCPILOT01","701","701","01-701-1146",19498,19535,"Xanomeline High Dose",81,75,"65-80",2,"WHITE",1,"F","Y","Y","N","Baseline",0,"BASELINE",3,1,19498,"Comprehension Of Spoken Language","ACITM12",12,0,0,null,null,"Y","Y","","<=1",1,0,null,1,"DAYS",5012],[674,"CDISCPILOT01","701","701","01-701-1146",19498,19535,"Xanomeline High Dose",81,75,"65-80",2,"WHITE",1,"F","Y","Y","N","Week 8",8,"WEEK 6",7,42,19539,"Comprehension Of Spoken Language","ACITM12",12,0,0,0,null,"","Y","","2-84",56,14,2,84,"DAYS",5027],[675,"CDISCPILOT01","701","701","01-701-1146",19498,19535,"Xanomeline High Dose",81,75,"65-80",2,"WHITE",1,"F","Y","Y","N","Baseline",0,"BASELINE",3,1,19498,"Word Finding Difficulty In Spontaneous S","ACITM13",13,0,0,null,null,"Y","Y","","<=1",1,0,null,1,"DAYS",5013],[676,"CDISCPILOT01","701","701","01-701-1146",19498,19535,"Xanomeline High Dose",81,75,"65-80",2,"WHITE",1,"F","Y","Y","N","Week 8",8,"WEEK 6",7,42,19539,"Word Finding Difficulty In Spontaneous S","ACITM13",13,0,0,0,null,"","Y","","2-84",56,14,2,84,"DAYS",5028],[677,"CDISCPILOT01","701","701","01-701-1146",19498,19535,"Xanomeline High Dose",81,75,"65-80",2,"WHITE",1,"F","Y","Y","N","Baseline",0,"BASELINE",3,1,19498,"Recall Of Test Instructions","ACITM14",14,0,0,null,null,"Y","Y","","<=1",1,0,null,1,"DAYS",5014],[678,"CDISCPILOT01","701","701","01-701-1146",19498,19535,"Xanomeline High Dose",81,75,"65-80",2,"WHITE",1,"F","Y","Y","N","Week 8",8,"WEEK 6",7,42,19539,"Recall Of Test Instructions","ACITM14",14,2,0,2,null,"","Y","","2-84",56,14,2,84,"DAYS",5029],[679,"CDISCPILOT01","701","701","01-701-1146",19498,19535,"Xanomeline High Dose",81,75,"65-80",2,"WHITE",1,"F","Y","Y","N","Baseline",0,"BASELINE",3,1,19498,"Adas-Cog(11) Subscore","ACTOT",15,11,11,null,null,"Y","Y","","<=1",1,0,null,1,"DAYS",5015],[680,"CDISCPILOT01","701","701","01-701-1146",19498,19535,"Xanomeline High Dose",81,75,"65-80",2,"WHITE",1,"F","Y","Y","N","Week 16",16,"WEEK 6",7,42,19539,"Adas-Cog(11) Subscore","ACTOT",15,10,11,-1,-9.09090909091,"","Y","LOCF","85-140",112,70,85,140,"DAYS",5030],[681,"CDISCPILOT01","701","701","01-701-1146",19498,19535,"Xanomeline High Dose",81,75,"65-80",2,"WHITE",1,"F","Y","Y","N","Week 24",24,"WEEK 6",7,42,19539,"Adas-Cog(11) Subscore","ACTOT",15,10,11,-1,-9.09090909091,"","Y","LOCF",">140",168,126,141,null,"DAYS",5030],[682,"CDISCPILOT01","701","701","01-701-1146",19498,19535,"Xanomeline High Dose",81,75,"65-80",2,"WHITE",1,"F","Y","Y","N","Week 8",8,"WEEK 6",7,42,19539,"Adas-Cog(11) Subscore","ACTOT",15,10,11,-1,-9.09090909091,"","Y","","2-84",56,14,2,84,"DAYS",5030],[683,"CDISCPILOT01","701","701","01-701-1148",19593,19774,"Xanomeline High Dose",81,57,"<65",1,"WHITE",1,"M","Y","Y","Y","Baseline",0,"BASELINE",3,1,19593,"Word Recall Task","ACITM01",1,4,4,null,null,"Y","Y","","<=1",1,0,null,1,"DAYS",5001],[684,"CDISCPILOT01","701","701","01-701-1148",19593,19774,"Xanomeline High Dose",81,57,"<65",1,"WHITE",1,"M","Y","Y","Y","Week 16",16,"WEEK 16",10,113,19705,"Word Recall Task","ACITM01",1,4,4,0,0,"","Y","","85-140",112,1,85,140,"DAYS",5031],[685,"CDISCPILOT01","701","701","01-701-1148",19593,19774,"Xanomeline High Dose",81,57,"<65",1,"WHITE",1,"M","Y","Y","Y","Week 24",24,"WEEK 24",12,170,19762,"Word Recall Task","ACITM01",1,6,4,2,50,"","Y","",">140",168,2,141,null,"DAYS",5046],[686,"CDISCPILOT01","701","701","01-701-1148",19593,19774,"Xanomeline High Dose",81,57,"<65",1,"WHITE",1,"M","Y","Y","Y","Week 8",8,"WEEK 8",8,57,19649,"Word Recall Task","ACITM01",1,4,4,0,0,"","Y","","2-84",56,1,2,84,"DAYS",5016],[687,"CDISCPILOT01","701","701","01-701-1148",19593,19774,"Xanomeline High Dose",81,57,"<65",1,"WHITE",1,"M","Y","Y","Y","Baseline",0,"BASELINE",3,1,19593,"Naming Objects And Fingers (Refer To 5 C","ACITM02",2,0,0,null,null,"Y","Y","","<=1",1,0,null,1,"DAYS",5002],[688,"CDISCPILOT01","701","701","01-701-1148",19593,19774,"Xanomeline High Dose",81,57,"<65",1,"WHITE",1,"M","Y","Y","Y","Week 16",16,"WEEK 16",10,113,19705,"Naming Objects And Fingers (Refer To 5 C","ACITM02",2,0,0,0,null,"","Y","","85-140",112,1,85,140,"DAYS",5032],[689,"CDISCPILOT01","701","701","01-701-1148",19593,19774,"Xanomeline High Dose",81,57,"<65",1,"WHITE",1,"M","Y","Y","Y","Week 24",24,"WEEK 24",12,170,19762,"Naming Objects And Fingers (Refer To 5 C","ACITM02",2,0,0,0,null,"","Y","",">140",168,2,141,null,"DAYS",5047],[690,"CDISCPILOT01","701","701","01-701-1148",19593,19774,"Xanomeline High Dose",81,57,"<65",1,"WHITE",1,"M","Y","Y","Y","Week 8",8,"WEEK 8",8,57,19649,"Naming Objects And Fingers (Refer To 5 C","ACITM02",2,0,0,0,null,"","Y","","2-84",56,1,2,84,"DAYS",5017],[691,"CDISCPILOT01","701","701","01-701-1148",19593,19774,"Xanomeline High Dose",81,57,"<65",1,"WHITE",1,"M","Y","Y","Y","Baseline",0,"BASELINE",3,1,19593,"Delayed Word Recall","ACITM03",3,3,3,null,null,"Y","Y","","<=1",1,0,null,1,"DAYS",5003],[692,"CDISCPILOT01","701","701","01-701-1148",19593,19774,"Xanomeline High Dose",81,57,"<65",1,"WHITE",1,"M","Y","Y","Y","Week 16",16,"WEEK 16",10,113,19705,"Delayed Word Recall","ACITM03",3,4,3,1,33.3333333333,"","Y","","85-140",112,1,85,140,"DAYS",5033],[693,"CDISCPILOT01","701","701","01-701-1148",19593,19774,"Xanomeline High Dose",81,57,"<65",1,"WHITE",1,"M","Y","Y","Y","Week 24",24,"WEEK 24",12,170,19762,"Delayed Word Recall","ACITM03",3,5,3,2,66.6666666667,"","Y","",">140",168,2,141,null,"DAYS",5048],[694,"CDISCPILOT01","701","701","01-701-1148",19593,19774,"Xanomeline High Dose",81,57,"<65",1,"WHITE",1,"M","Y","Y","Y","Week 8",8,"WEEK 8",8,57,19649,"Delayed Word Recall","ACITM03",3,3,3,0,0,"","Y","","2-84",56,1,2,84,"DAYS",5018],[695,"CDISCPILOT01","701","701","01-701-1148",19593,19774,"Xanomeline High Dose",81,57,"<65",1,"WHITE",1,"M","Y","Y","Y","Baseline",0,"BASELINE",3,1,19593,"Commands","ACITM04",4,0,0,null,null,"Y","Y","","<=1",1,0,null,1,"DAYS",5004],[696,"CDISCPILOT01","701","701","01-701-1148",19593,19774,"Xanomeline High Dose",81,57,"<65",1,"WHITE",1,"M","Y","Y","Y","Week 16",16,"WEEK 16",10,113,19705,"Commands","ACITM04",4,0,0,0,null,"","Y","","85-140",112,1,85,140,"DAYS",5034],[697,"CDISCPILOT01","701","701","01-701-1148",19593,19774,"Xanomeline High Dose",81,57,"<65",1,"WHITE",1,"M","Y","Y","Y","Week 24",24,"WEEK 24",12,170,19762,"Commands","ACITM04",4,0,0,0,null,"","Y","",">140",168,2,141,null,"DAYS",5049],[698,"CDISCPILOT01","701","701","01-701-1148",19593,19774,"Xanomeline High Dose",81,57,"<65",1,"WHITE",1,"M","Y","Y","Y","Week 8",8,"WEEK 8",8,57,19649,"Commands","ACITM04",4,0,0,0,null,"","Y","","2-84",56,1,2,84,"DAYS",5019],[699,"CDISCPILOT01","701","701","01-701-1148",19593,19774,"Xanomeline High Dose",81,57,"<65",1,"WHITE",1,"M","Y","Y","Y","Baseline",0,"BASELINE",3,1,19593,"Constructional Praxis","ACITM05",5,0,0,null,null,"Y","Y","","<=1",1,0,null,1,"DAYS",5005],[700,"CDISCPILOT01","701","701","01-701-1148",19593,19774,"Xanomeline High Dose",81,57,"<65",1,"WHITE",1,"M","Y","Y","Y","Week 16",16,"WEEK 16",10,113,19705,"Constructional Praxis","ACITM05",5,2,0,2,null,"","Y","","85-140",112,1,85,140,"DAYS",5035],[701,"CDISCPILOT01","701","701","01-701-1148",19593,19774,"Xanomeline High Dose",81,57,"<65",1,"WHITE",1,"M","Y","Y","Y","Week 24",24,"WEEK 24",12,170,19762,"Constructional Praxis","ACITM05",5,1,0,1,null,"","Y","",">140",168,2,141,null,"DAYS",5050],[702,"CDISCPILOT01","701","701","01-701-1148",19593,19774,"Xanomeline High Dose",81,57,"<65",1,"WHITE",1,"M","Y","Y","Y","Week 8",8,"WEEK 8",8,57,19649,"Constructional Praxis","ACITM05",5,1,0,1,null,"","Y","","2-84",56,1,2,84,"DAYS",5020],[703,"CDISCPILOT01","701","701","01-701-1148",19593,19774,"Xanomeline High Dose",81,57,"<65",1,"WHITE",1,"M","Y","Y","Y","Baseline",0,"BASELINE",3,1,19593,"Ideational Praxis","ACITM06",6,0,0,null,null,"Y","Y","","<=1",1,0,null,1,"DAYS",5006],[704,"CDISCPILOT01","701","701","01-701-1148",19593,19774,"Xanomeline High Dose",81,57,"<65",1,"WHITE",1,"M","Y","Y","Y","Week 16",16,"WEEK 16",10,113,19705,"Ideational Praxis","ACITM06",6,0,0,0,null,"","Y","","85-140",112,1,85,140,"DAYS",5036],[705,"CDISCPILOT01","701","701","01-701-1148",19593,19774,"Xanomeline High Dose",81,57,"<65",1,"WHITE",1,"M","Y","Y","Y","Week 24",24,"WEEK 24",12,170,19762,"Ideational Praxis","ACITM06",6,0,0,0,null,"","Y","",">140",168,2,141,null,"DAYS",5051],[706,"CDISCPILOT01","701","701","01-701-1148",19593,19774,"Xanomeline High Dose",81,57,"<65",1,"WHITE",1,"M","Y","Y","Y","Week 8",8,"WEEK 8",8,57,19649,"Ideational Praxis","ACITM06",6,0,0,0,null,"","Y","","2-84",56,1,2,84,"DAYS",5021],[707,"CDISCPILOT01","701","701","01-701-1148",19593,19774,"Xanomeline High Dose",81,57,"<65",1,"WHITE",1,"M","Y","Y","Y","Baseline",0,"BASELINE",3,1,19593,"Orientation","ACITM07",7,0,0,null,null,"Y","Y","","<=1",1,0,null,1,"DAYS",5007],[708,"CDISCPILOT01","701","701","01-701-1148",19593,19774,"Xanomeline High Dose",81,57,"<65",1,"WHITE",1,"M","Y","Y","Y","Week 16",16,"WEEK 16",10,113,19705,"Orientation","ACITM07",7,0,0,0,null,"","Y","","85-140",112,1,85,140,"DAYS",5037],[709,"CDISCPILOT01","701","701","01-701-1148",19593,19774,"Xanomeline High Dose",81,57,"<65",1,"WHITE",1,"M","Y","Y","Y","Week 24",24,"WEEK 24",12,170,19762,"Orientation","ACITM07",7,0,0,0,null,"","Y","",">140",168,2,141,null,"DAYS",5052],[710,"CDISCPILOT01","701","701","01-701-1148",19593,19774,"Xanomeline High Dose",81,57,"<65",1,"WHITE",1,"M","Y","Y","Y","Week 8",8,"WEEK 8",8,57,19649,"Orientation","ACITM07",7,0,0,0,null,"","Y","","2-84",56,1,2,84,"DAYS",5022],[711,"CDISCPILOT01","701","701","01-701-1148",19593,19774,"Xanomeline High Dose",81,57,"<65",1,"WHITE",1,"M","Y","Y","Y","Baseline",0,"BASELINE",3,1,19593,"Word Recognition","ACITM08",8,1,1,null,null,"Y","Y","","<=1",1,0,null,1,"DAYS",5008],[712,"CDISCPILOT01","701","701","01-701-1148",19593,19774,"Xanomeline High Dose",81,57,"<65",1,"WHITE",1,"M","Y","Y","Y","Week 16",16,"WEEK 16",10,113,19705,"Word Recognition","ACITM08",8,0,1,-1,-100,"","Y","","85-140",112,1,85,140,"DAYS",5038],[713,"CDISCPILOT01","701","701","01-701-1148",19593,19774,"Xanomeline High Dose",81,57,"<65",1,"WHITE",1,"M","Y","Y","Y","Week 24",24,"WEEK 24",12,170,19762,"Word Recognition","ACITM08",8,0,1,-1,-100,"","Y","",">140",168,2,141,null,"DAYS",5053],[714,"CDISCPILOT01","701","701","01-701-1148",19593,19774,"Xanomeline High Dose",81,57,"<65",1,"WHITE",1,"M","Y","Y","Y","Week 8",8,"WEEK 8",8,57,19649,"Word Recognition","ACITM08",8,1,1,0,0,"","Y","","2-84",56,1,2,84,"DAYS",5023],[715,"CDISCPILOT01","701","701","01-701-1148",19593,19774,"Xanomeline High Dose",81,57,"<65",1,"WHITE",1,"M","Y","Y","Y","Baseline",0,"BASELINE",3,1,19593,"Attention/Visual Search Task","ACITM09",9,29,29,null,null,"Y","Y","","<=1",1,0,null,1,"DAYS",5009],[716,"CDISCPILOT01","701","701","01-701-1148",19593,19774,"Xanomeline High Dose",81,57,"<65",1,"WHITE",1,"M","Y","Y","Y","Week 16",16,"WEEK 16",10,113,19705,"Attention/Visual Search Task","ACITM09",9,34,29,5,17.2413793103,"","Y","","85-140",112,1,85,140,"DAYS",5039],[717,"CDISCPILOT01","701","701","01-701-1148",19593,19774,"Xanomeline High Dose",81,57,"<65",1,"WHITE",1,"M","Y","Y","Y","Week 24",24,"WEEK 24",12,170,19762,"Attention/Visual Search Task","ACITM09",9,39,29,10,34.4827586207,"","Y","",">140",168,2,141,null,"DAYS",5054],[718,"CDISCPILOT01","701","701","01-701-1148",19593,19774,"Xanomeline High Dose",81,57,"<65",1,"WHITE",1,"M","Y","Y","Y","Week 8",8,"WEEK 8",8,57,19649,"Attention/Visual Search Task","ACITM09",9,27,29,-2,-6.89655172414,"","Y","","2-84",56,1,2,84,"DAYS",5024],[719,"CDISCPILOT01","701","701","01-701-1148",19593,19774,"Xanomeline High Dose",81,57,"<65",1,"WHITE",1,"M","Y","Y","Y","Baseline",0,"BASELINE",3,1,19593,"Maze Solution","ACITM10",10,4,4,null,null,"Y","Y","","<=1",1,0,null,1,"DAYS",5010],[720,"CDISCPILOT01","701","701","01-701-1148",19593,19774,"Xanomeline High Dose",81,57,"<65",1,"WHITE",1,"M","Y","Y","Y","Week 16",16,"WEEK 16",10,113,19705,"Maze Solution","ACITM10",10,3,4,-1,-25,"","Y","","85-140",112,1,85,140,"DAYS",5040],[721,"CDISCPILOT01","701","701","01-701-1148",19593,19774,"Xanomeline High Dose",81,57,"<65",1,"WHITE",1,"M","Y","Y","Y","Week 24",24,"WEEK 24",12,170,19762,"Maze Solution","ACITM10",10,2,4,-2,-50,"","Y","",">140",168,2,141,null,"DAYS",5055],[722,"CDISCPILOT01","701","701","01-701-1148",19593,19774,"Xanomeline High Dose",81,57,"<65",1,"WHITE",1,"M","Y","Y","Y","Week 8",8,"WEEK 8",8,57,19649,"Maze Solution","ACITM10",10,2,4,-2,-50,"","Y","","2-84",56,1,2,84,"DAYS",5025],[723,"CDISCPILOT01","701","701","01-701-1148",19593,19774,"Xanomeline High Dose",81,57,"<65",1,"WHITE",1,"M","Y","Y","Y","Baseline",0,"BASELINE",3,1,19593,"Spoken Language Ability","ACITM11",11,0,0,null,null,"Y","Y","","<=1",1,0,null,1,"DAYS",5011],[724,"CDISCPILOT01","701","701","01-701-1148",19593,19774,"Xanomeline High Dose",81,57,"<65",1,"WHITE",1,"M","Y","Y","Y","Week 16",16,"WEEK 16",10,113,19705,"Spoken Language Ability","ACITM11",11,0,0,0,null,"","Y","","85-140",112,1,85,140,"DAYS",5041],[725,"CDISCPILOT01","701","701","01-701-1148",19593,19774,"Xanomeline High Dose",81,57,"<65",1,"WHITE",1,"M","Y","Y","Y","Week 24",24,"WEEK 24",12,170,19762,"Spoken Language Ability","ACITM11",11,0,0,0,null,"","Y","",">140",168,2,141,null,"DAYS",5056],[726,"CDISCPILOT01","701","701","01-701-1148",19593,19774,"Xanomeline High Dose",81,57,"<65",1,"WHITE",1,"M","Y","Y","Y","Week 8",8,"WEEK 8",8,57,19649,"Spoken Language Ability","ACITM11",11,0,0,0,null,"","Y","","2-84",56,1,2,84,"DAYS",5026],[727,"CDISCPILOT01","701","701","01-701-1148",19593,19774,"Xanomeline High Dose",81,57,"<65",1,"WHITE",1,"M","Y","Y","Y","Baseline",0,"BASELINE",3,1,19593,"Comprehension Of Spoken Language","ACITM12",12,0,0,null,null,"Y","Y","","<=1",1,0,null,1,"DAYS",5012],[728,"CDISCPILOT01","701","701","01-701-1148",19593,19774,"Xanomeline High Dose",81,57,"<65",1,"WHITE",1,"M","Y","Y","Y","Week 16",16,"WEEK 16",10,113,19705,"Comprehension Of Spoken Language","ACITM12",12,0,0,0,null,"","Y","","85-140",112,1,85,140,"DAYS",5042],[729,"CDISCPILOT01","701","701","01-701-1148",19593,19774,"Xanomeline High Dose",81,57,"<65",1,"WHITE",1,"M","Y","Y","Y","Week 24",24,"WEEK 24",12,170,19762,"Comprehension Of Spoken Language","ACITM12",12,0,0,0,null,"","Y","",">140",168,2,141,null,"DAYS",5057],[730,"CDISCPILOT01","701","701","01-701-1148",19593,19774,"Xanomeline High Dose",81,57,"<65",1,"WHITE",1,"M","Y","Y","Y","Week 8",8,"WEEK 8",8,57,19649,"Comprehension Of Spoken Language","ACITM12",12,0,0,0,null,"","Y","","2-84",56,1,2,84,"DAYS",5027],[731,"CDISCPILOT01","701","701","01-701-1148",19593,19774,"Xanomeline High Dose",81,57,"<65",1,"WHITE",1,"M","Y","Y","Y","Baseline",0,"BASELINE",3,1,19593,"Word Finding Difficulty In Spontaneous S","ACITM13",13,0,0,null,null,"Y","Y","","<=1",1,0,null,1,"DAYS",5013],[732,"CDISCPILOT01","701","701","01-701-1148",19593,19774,"Xanomeline High Dose",81,57,"<65",1,"WHITE",1,"M","Y","Y","Y","Week 16",16,"WEEK 16",10,113,19705,"Word Finding Difficulty In Spontaneous S","ACITM13",13,0,0,0,null,"","Y","","85-140",112,1,85,140,"DAYS",5043],[733,"CDISCPILOT01","701","701","01-701-1148",19593,19774,"Xanomeline High Dose",81,57,"<65",1,"WHITE",1,"M","Y","Y","Y","Week 24",24,"WEEK 24",12,170,19762,"Word Finding Difficulty In Spontaneous S","ACITM13",13,0,0,0,null,"","Y","",">140",168,2,141,null,"DAYS",5058],[734,"CDISCPILOT01","701","701","01-701-1148",19593,19774,"Xanomeline High Dose",81,57,"<65",1,"WHITE",1,"M","Y","Y","Y","Week 8",8,"WEEK 8",8,57,19649,"Word Finding Difficulty In Spontaneous S","ACITM13",13,0,0,0,null,"","Y","","2-84",56,1,2,84,"DAYS",5028],[735,"CDISCPILOT01","701","701","01-701-1148",19593,19774,"Xanomeline High Dose",81,57,"<65",1,"WHITE",1,"M","Y","Y","Y","Baseline",0,"BASELINE",3,1,19593,"Recall Of Test Instructions","ACITM14",14,0,0,null,null,"Y","Y","","<=1",1,0,null,1,"DAYS",5014],[736,"CDISCPILOT01","701","701","01-701-1148",19593,19774,"Xanomeline High Dose",81,57,"<65",1,"WHITE",1,"M","Y","Y","Y","Week 16",16,"WEEK 16",10,113,19705,"Recall Of Test Instructions","ACITM14",14,0,0,0,null,"","Y","","85-140",112,1,85,140,"DAYS",5044],[737,"CDISCPILOT01","701","701","01-701-1148",19593,19774,"Xanomeline High Dose",81,57,"<65",1,"WHITE",1,"M","Y","Y","Y","Week 24",24,"WEEK 24",12,170,19762,"Recall Of Test Instructions","ACITM14",14,0,0,0,null,"","Y","",">140",168,2,141,null,"DAYS",5059],[738,"CDISCPILOT01","701","701","01-701-1148",19593,19774,"Xanomeline High Dose",81,57,"<65",1,"WHITE",1,"M","Y","Y","Y","Week 8",8,"WEEK 8",8,57,19649,"Recall Of Test Instructions","ACITM14",14,0,0,0,null,"","Y","","2-84",56,1,2,84,"DAYS",5029],[739,"CDISCPILOT01","701","701","01-701-1148",19593,19774,"Xanomeline High Dose",81,57,"<65",1,"WHITE",1,"M","Y","Y","Y","Baseline",0,"BASELINE",3,1,19593,"Adas-Cog(11) Subscore","ACTOT",15,5,5,null,null,"Y","Y","","<=1",1,0,null,1,"DAYS",5015],[740,"CDISCPILOT01","701","701","01-701-1148",19593,19774,"Xanomeline High Dose",81,57,"<65",1,"WHITE",1,"M","Y","Y","Y","Week 16",16,"WEEK 16",10,113,19705,"Adas-Cog(11) Subscore","ACTOT",15,6,5,1,20,"","Y","","85-140",112,1,85,140,"DAYS",5045],[741,"CDISCPILOT01","701","701","01-701-1148",19593,19774,"Xanomeline High Dose",81,57,"<65",1,"WHITE",1,"M","Y","Y","Y","Week 24",24,"WEEK 24",12,170,19762,"Adas-Cog(11) Subscore","ACTOT",15,7,5,2,40,"","Y","",">140",168,2,141,null,"DAYS",5060],[742,"CDISCPILOT01","701","701","01-701-1148",19593,19774,"Xanomeline High Dose",81,57,"<65",1,"WHITE",1,"M","Y","Y","Y","Week 8",8,"WEEK 8",8,57,19649,"Adas-Cog(11) Subscore","ACTOT",15,6,5,1,20,"","Y","","2-84",56,1,2,84,"DAYS",5030],[743,"CDISCPILOT01","701","701","01-701-1153",19624,19798,"Placebo",0,79,"65-80",2,"WHITE",1,"F","Y","Y","Y","Baseline",0,"BASELINE",3,1,19624,"Word Recall Task","ACITM01",1,10,10,null,null,"Y","Y","","<=1",1,0,null,1,"DAYS",5001],[744,"CDISCPILOT01","701","701","01-701-1153",19624,19798,"Placebo",0,79,"65-80",2,"WHITE",1,"F","Y","Y","Y","Week 16",16,"WEEK 16",10,108,19731,"Word Recall Task","ACITM01",1,10,10,0,0,"","Y","","85-140",112,4,85,140,"DAYS",5031],[745,"CDISCPILOT01","701","701","01-701-1153",19624,19798,"Placebo",0,79,"65-80",2,"WHITE",1,"F","Y","Y","Y","Week 24",24,"WEEK 24",12,170,19793,"Word Recall Task","ACITM01",1,10,10,0,0,"","Y","",">140",168,2,141,null,"DAYS",5046],[746,"CDISCPILOT01","701","701","01-701-1153",19624,19798,"Placebo",0,79,"65-80",2,"WHITE",1,"F","Y","Y","Y","Week 8",8,"WEEK 8",8,57,19680,"Word Recall Task","ACITM01",1,10,10,0,0,"","Y","","2-84",56,1,2,84,"DAYS",5016],[747,"CDISCPILOT01","701","701","01-701-1153",19624,19798,"Placebo",0,79,"65-80",2,"WHITE",1,"F","Y","Y","Y","Baseline",0,"BASELINE",3,1,19624,"Naming Objects And Fingers (Refer To 5 C","ACITM02",2,4,4,null,null,"Y","Y","","<=1",1,0,null,1,"DAYS",5002],[748,"CDISCPILOT01","701","701","01-701-1153",19624,19798,"Placebo",0,79,"65-80",2,"WHITE",1,"F","Y","Y","Y","Week 16",16,"WEEK 16",10,108,19731,"Naming Objects And Fingers (Refer To 5 C","ACITM02",2,5,4,1,25,"","Y","","85-140",112,4,85,140,"DAYS",5032],[749,"CDISCPILOT01","701","701","01-701-1153",19624,19798,"Placebo",0,79,"65-80",2,"WHITE",1,"F","Y","Y","Y","Week 24",24,"WEEK 24",12,170,19793,"Naming Objects And Fingers (Refer To 5 C","ACITM02",2,4,4,0,0,"","Y","",">140",168,2,141,null,"DAYS",5047],[750,"CDISCPILOT01","701","701","01-701-1153",19624,19798,"Placebo",0,79,"65-80",2,"WHITE",1,"F","Y","Y","Y","Week 8",8,"WEEK 8",8,57,19680,"Naming Objects And Fingers (Refer To 5 C","ACITM02",2,4,4,0,0,"","Y","","2-84",56,1,2,84,"DAYS",5017],[751,"CDISCPILOT01","701","701","01-701-1153",19624,19798,"Placebo",0,79,"65-80",2,"WHITE",1,"F","Y","Y","Y","Baseline",0,"BASELINE",3,1,19624,"Delayed Word Recall","ACITM03",3,10,10,null,null,"Y","Y","","<=1",1,0,null,1,"DAYS",5003],[752,"CDISCPILOT01","701","701","01-701-1153",19624,19798,"Placebo",0,79,"65-80",2,"WHITE",1,"F","Y","Y","Y","Week 16",16,"WEEK 16",10,108,19731,"Delayed Word Recall","ACITM03",3,10,10,0,0,"","Y","","85-140",112,4,85,140,"DAYS",5033],[753,"CDISCPILOT01","701","701","01-701-1153",19624,19798,"Placebo",0,79,"65-80",2,"WHITE",1,"F","Y","Y","Y","Week 24",24,"WEEK 24",12,170,19793,"Delayed Word Recall","ACITM03",3,10,10,0,0,"","Y","",">140",168,2,141,null,"DAYS",5048],[754,"CDISCPILOT01","701","701","01-701-1153",19624,19798,"Placebo",0,79,"65-80",2,"WHITE",1,"F","Y","Y","Y","Week 8",8,"WEEK 8",8,57,19680,"Delayed Word Recall","ACITM03",3,10,10,0,0,"","Y","","2-84",56,1,2,84,"DAYS",5018],[755,"CDISCPILOT01","701","701","01-701-1153",19624,19798,"Placebo",0,79,"65-80",2,"WHITE",1,"F","Y","Y","Y","Baseline",0,"BASELINE",3,1,19624,"Commands","ACITM04",4,3,3,null,null,"Y","Y","","<=1",1,0,null,1,"DAYS",5004],[756,"CDISCPILOT01","701","701","01-701-1153",19624,19798,"Placebo",0,79,"65-80",2,"WHITE",1,"F","Y","Y","Y","Week 16",16,"WEEK 16",10,108,19731,"Commands","ACITM04",4,2,3,-1,-33.3333333333,"","Y","","85-140",112,4,85,140,"DAYS",5034],[757,"CDISCPILOT01","701","701","01-701-1153",19624,19798,"Placebo",0,79,"65-80",2,"WHITE",1,"F","Y","Y","Y","Week 24",24,"WEEK 24",12,170,19793,"Commands","ACITM04",4,1,3,-2,-66.6666666667,"","Y","",">140",168,2,141,null,"DAYS",5049],[758,"CDISCPILOT01","701","701","01-701-1153",19624,19798,"Placebo",0,79,"65-80",2,"WHITE",1,"F","Y","Y","Y","Week 8",8,"WEEK 8",8,57,19680,"Commands","ACITM04",4,2,3,-1,-33.3333333333,"","Y","","2-84",56,1,2,84,"DAYS",5019],[759,"CDISCPILOT01","701","701","01-701-1153",19624,19798,"Placebo",0,79,"65-80",2,"WHITE",1,"F","Y","Y","Y","Baseline",0,"BASELINE",3,1,19624,"Constructional Praxis","ACITM05",5,2,2,null,null,"Y","Y","","<=1",1,0,null,1,"DAYS",5005],[760,"CDISCPILOT01","701","701","01-701-1153",19624,19798,"Placebo",0,79,"65-80",2,"WHITE",1,"F","Y","Y","Y","Week 16",16,"WEEK 16",10,108,19731,"Constructional Praxis","ACITM05",5,2,2,0,0,"","Y","","85-140",112,4,85,140,"DAYS",5035],[761,"CDISCPILOT01","701","701","01-701-1153",19624,19798,"Placebo",0,79,"65-80",2,"WHITE",1,"F","Y","Y","Y","Week 24",24,"WEEK 24",12,170,19793,"Constructional Praxis","ACITM05",5,2,2,0,0,"","Y","",">140",168,2,141,null,"DAYS",5050],[762,"CDISCPILOT01","701","701","01-701-1153",19624,19798,"Placebo",0,79,"65-80",2,"WHITE",1,"F","Y","Y","Y","Week 8",8,"WEEK 8",8,57,19680,"Constructional Praxis","ACITM05",5,1,2,-1,-50,"","Y","","2-84",56,1,2,84,"DAYS",5020],[763,"CDISCPILOT01","701","701","01-701-1153",19624,19798,"Placebo",0,79,"65-80",2,"WHITE",1,"F","Y","Y","Y","Baseline",0,"BASELINE",3,1,19624,"Ideational Praxis","ACITM06",6,1,1,null,null,"Y","Y","","<=1",1,0,null,1,"DAYS",5006],[764,"CDISCPILOT01","701","701","01-701-1153",19624,19798,"Placebo",0,79,"65-80",2,"WHITE",1,"F","Y","Y","Y","Week 16",16,"WEEK 16",10,108,19731,"Ideational Praxis","ACITM06",6,1,1,0,0,"","Y","","85-140",112,4,85,140,"DAYS",5036],[765,"CDISCPILOT01","701","701","01-701-1153",19624,19798,"Placebo",0,79,"65-80",2,"WHITE",1,"F","Y","Y","Y","Week 24",24,"WEEK 24",12,170,19793,"Ideational Praxis","ACITM06",6,1,1,0,0,"","Y","",">140",168,2,141,null,"DAYS",5051],[766,"CDISCPILOT01","701","701","01-701-1153",19624,19798,"Placebo",0,79,"65-80",2,"WHITE",1,"F","Y","Y","Y","Week 8",8,"WEEK 8",8,57,19680,"Ideational Praxis","ACITM06",6,0,1,-1,-100,"","Y","","2-84",56,1,2,84,"DAYS",5021],[767,"CDISCPILOT01","701","701","01-701-1153",19624,19798,"Placebo",0,79,"65-80",2,"WHITE",1,"F","Y","Y","Y","Baseline",0,"BASELINE",3,1,19624,"Orientation","ACITM07",7,6,6,null,null,"Y","Y","","<=1",1,0,null,1,"DAYS",5007],[768,"CDISCPILOT01","701","701","01-701-1153",19624,19798,"Placebo",0,79,"65-80",2,"WHITE",1,"F","Y","Y","Y","Week 16",16,"WEEK 16",10,108,19731,"Orientation","ACITM07",7,8,6,2,33.3333333333,"","Y","","85-140",112,4,85,140,"DAYS",5037],[769,"CDISCPILOT01","701","701","01-701-1153",19624,19798,"Placebo",0,79,"65-80",2,"WHITE",1,"F","Y","Y","Y","Week 24",24,"WEEK 24",12,170,19793,"Orientation","ACITM07",7,8,6,2,33.3333333333,"","Y","",">140",168,2,141,null,"DAYS",5052],[770,"CDISCPILOT01","701","701","01-701-1153",19624,19798,"Placebo",0,79,"65-80",2,"WHITE",1,"F","Y","Y","Y","Week 8",8,"WEEK 8",8,57,19680,"Orientation","ACITM07",7,7,6,1,16.6666666667,"","Y","","2-84",56,1,2,84,"DAYS",5022],[771,"CDISCPILOT01","701","701","01-701-1153",19624,19798,"Placebo",0,79,"65-80",2,"WHITE",1,"F","Y","Y","Y","Baseline",0,"BASELINE",3,1,19624,"Word Recognition","ACITM08",8,10,10,null,null,"Y","Y","","<=1",1,0,null,1,"DAYS",5008],[772,"CDISCPILOT01","701","701","01-701-1153",19624,19798,"Placebo",0,79,"65-80",2,"WHITE",1,"F","Y","Y","Y","Week 16",16,"WEEK 16",10,108,19731,"Word Recognition","ACITM08",8,12,10,2,20,"","Y","","85-140",112,4,85,140,"DAYS",5038],[773,"CDISCPILOT01","701","701","01-701-1153",19624,19798,"Placebo",0,79,"65-80",2,"WHITE",1,"F","Y","Y","Y","Week 24",24,"WEEK 24",12,170,19793,"Word Recognition","ACITM08",8,11,10,1,10,"","Y","",">140",168,2,141,null,"DAYS",5053],[774,"CDISCPILOT01","701","701","01-701-1153",19624,19798,"Placebo",0,79,"65-80",2,"WHITE",1,"F","Y","Y","Y","Week 8",8,"WEEK 8",8,57,19680,"Word Recognition","ACITM08",8,12,10,2,20,"","Y","","2-84",56,1,2,84,"DAYS",5023],[775,"CDISCPILOT01","701","701","01-701-1153",19624,19798,"Placebo",0,79,"65-80",2,"WHITE",1,"F","Y","Y","Y","Baseline",0,"BASELINE",3,1,19624,"Attention/Visual Search Task","ACITM09",9,1,1,null,null,"Y","Y","","<=1",1,0,null,1,"DAYS",5009],[776,"CDISCPILOT01","701","701","01-701-1153",19624,19798,"Placebo",0,79,"65-80",2,"WHITE",1,"F","Y","Y","Y","Week 16",16,"WEEK 16",10,108,19731,"Attention/Visual Search Task","ACITM09",9,3,1,2,200,"","Y","","85-140",112,4,85,140,"DAYS",5039],[777,"CDISCPILOT01","701","701","01-701-1153",19624,19798,"Placebo",0,79,"65-80",2,"WHITE",1,"F","Y","Y","Y","Week 24",24,"WEEK 24",12,170,19793,"Attention/Visual Search Task","ACITM09",9,5,1,4,400,"","Y","",">140",168,2,141,null,"DAYS",5054],[778,"CDISCPILOT01","701","701","01-701-1153",19624,19798,"Placebo",0,79,"65-80",2,"WHITE",1,"F","Y","Y","Y","Week 8",8,"WEEK 8",8,57,19680,"Attention/Visual Search Task","ACITM09",9,4,1,3,300,"","Y","","2-84",56,1,2,84,"DAYS",5024],[779,"CDISCPILOT01","701","701","01-701-1153",19624,19798,"Placebo",0,79,"65-80",2,"WHITE",1,"F","Y","Y","Y","Baseline",0,"BASELINE",3,1,19624,"Maze Solution","ACITM10",10,15,15,null,null,"Y","Y","","<=1",1,0,null,1,"DAYS",5010],[780,"CDISCPILOT01","701","701","01-701-1153",19624,19798,"Placebo",0,79,"65-80",2,"WHITE",1,"F","Y","Y","Y","Week 16",16,"WEEK 16",10,108,19731,"Maze Solution","ACITM10",10,20,15,5,33.3333333333,"","Y","","85-140",112,4,85,140,"DAYS",5040],[781,"CDISCPILOT01","701","701","01-701-1153",19624,19798,"Placebo",0,79,"65-80",2,"WHITE",1,"F","Y","Y","Y","Week 24",24,"WEEK 24",12,170,19793,"Maze Solution","ACITM10",10,28,15,13,86.6666666667,"","Y","",">140",168,2,141,null,"DAYS",5055],[782,"CDISCPILOT01","701","701","01-701-1153",19624,19798,"Placebo",0,79,"65-80",2,"WHITE",1,"F","Y","Y","Y","Week 8",8,"WEEK 8",8,57,19680,"Maze Solution","ACITM10",10,17,15,2,13.3333333333,"","Y","","2-84",56,1,2,84,"DAYS",5025],[783,"CDISCPILOT01","701","701","01-701-1153",19624,19798,"Placebo",0,79,"65-80",2,"WHITE",1,"F","Y","Y","Y","Baseline",0,"BASELINE",3,1,19624,"Spoken Language Ability","ACITM11",11,2,2,null,null,"Y","Y","","<=1",1,0,null,1,"DAYS",5011],[784,"CDISCPILOT01","701","701","01-701-1153",19624,19798,"Placebo",0,79,"65-80",2,"WHITE",1,"F","Y","Y","Y","Week 16",16,"WEEK 16",10,108,19731,"Spoken Language Ability","ACITM11",11,4,2,2,100,"","Y","","85-140",112,4,85,140,"DAYS",5041],[785,"CDISCPILOT01","701","701","01-701-1153",19624,19798,"Placebo",0,79,"65-80",2,"WHITE",1,"F","Y","Y","Y","Week 24",24,"WEEK 24",12,170,19793,"Spoken Language Ability","ACITM11",11,4,2,2,100,"","Y","",">140",168,2,141,null,"DAYS",5056],[786,"CDISCPILOT01","701","701","01-701-1153",19624,19798,"Placebo",0,79,"65-80",2,"WHITE",1,"F","Y","Y","Y","Week 8",8,"WEEK 8",8,57,19680,"Spoken Language Ability","ACITM11",11,2,2,0,0,"","Y","","2-84",56,1,2,84,"DAYS",5026],[787,"CDISCPILOT01","701","701","01-701-1153",19624,19798,"Placebo",0,79,"65-80",2,"WHITE",1,"F","Y","Y","Y","Baseline",0,"BASELINE",3,1,19624,"Comprehension Of Spoken Language","ACITM12",12,2,2,null,null,"Y","Y","","<=1",1,0,null,1,"DAYS",5012],[788,"CDISCPILOT01","701","701","01-701-1153",19624,19798,"Placebo",0,79,"65-80",2,"WHITE",1,"F","Y","Y","Y","Week 16",16,"WEEK 16",10,108,19731,"Comprehension Of Spoken Language","ACITM12",12,3,2,1,50,"","Y","","85-140",112,4,85,140,"DAYS",5042],[789,"CDISCPILOT01","701","701","01-701-1153",19624,19798,"Placebo",0,79,"65-80",2,"WHITE",1,"F","Y","Y","Y","Week 24",24,"WEEK 24",12,170,19793,"Comprehension Of Spoken Language","ACITM12",12,3,2,1,50,"","Y","",">140",168,2,141,null,"DAYS",5057],[790,"CDISCPILOT01","701","701","01-701-1153",19624,19798,"Placebo",0,79,"65-80",2,"WHITE",1,"F","Y","Y","Y","Week 8",8,"WEEK 8",8,57,19680,"Comprehension Of Spoken Language","ACITM12",12,2,2,0,0,"","Y","","2-84",56,1,2,84,"DAYS",5027],[791,"CDISCPILOT01","701","701","01-701-1153",19624,19798,"Placebo",0,79,"65-80",2,"WHITE",1,"F","Y","Y","Y","Baseline",0,"BASELINE",3,1,19624,"Word Finding Difficulty In Spontaneous S","ACITM13",13,3,3,null,null,"Y","Y","","<=1",1,0,null,1,"DAYS",5013],[792,"CDISCPILOT01","701","701","01-701-1153",19624,19798,"Placebo",0,79,"65-80",2,"WHITE",1,"F","Y","Y","Y","Week 16",16,"WEEK 16",10,108,19731,"Word Finding Difficulty In Spontaneous S","ACITM13",13,3,3,0,0,"","Y","","85-140",112,4,85,140,"DAYS",5043],[793,"CDISCPILOT01","701","701","01-701-1153",19624,19798,"Placebo",0,79,"65-80",2,"WHITE",1,"F","Y","Y","Y","Week 24",24,"WEEK 24",12,170,19793,"Word Finding Difficulty In Spontaneous S","ACITM13",13,3,3,0,0,"","Y","",">140",168,2,141,null,"DAYS",5058],[794,"CDISCPILOT01","701","701","01-701-1153",19624,19798,"Placebo",0,79,"65-80",2,"WHITE",1,"F","Y","Y","Y","Week 8",8,"WEEK 8",8,57,19680,"Word Finding Difficulty In Spontaneous S","ACITM13",13,2,3,-1,-33.3333333333,"","Y","","2-84",56,1,2,84,"DAYS",5028],[795,"CDISCPILOT01","701","701","01-701-1153",19624,19798,"Placebo",0,79,"65-80",2,"WHITE",1,"F","Y","Y","Y","Baseline",0,"BASELINE",3,1,19624,"Recall Of Test Instructions","ACITM14",14,5,5,null,null,"Y","Y","","<=1",1,0,null,1,"DAYS",5014],[796,"CDISCPILOT01","701","701","01-701-1153",19624,19798,"Placebo",0,79,"65-80",2,"WHITE",1,"F","Y","Y","Y","Week 16",16,"WEEK 16",10,108,19731,"Recall Of Test Instructions","ACITM14",14,5,5,0,0,"","Y","","85-140",112,4,85,140,"DAYS",5044],[797,"CDISCPILOT01","701","701","01-701-1153",19624,19798,"Placebo",0,79,"65-80",2,"WHITE",1,"F","Y","Y","Y","Week 24",24,"WEEK 24",12,170,19793,"Recall Of Test Instructions","ACITM14",14,5,5,0,0,"","Y","",">140",168,2,141,null,"DAYS",5059],[798,"CDISCPILOT01","701","701","01-701-1153",19624,19798,"Placebo",0,79,"65-80",2,"WHITE",1,"F","Y","Y","Y","Week 8",8,"WEEK 8",8,57,19680,"Recall Of Test Instructions","ACITM14",14,5,5,0,0,"","Y","","2-84",56,1,2,84,"DAYS",5029],[799,"CDISCPILOT01","701","701","01-701-1153",19624,19798,"Placebo",0,79,"65-80",2,"WHITE",1,"F","Y","Y","Y","Baseline",0,"BASELINE",3,1,19624,"Adas-Cog(11) Subscore","ACTOT",15,48,48,null,null,"Y","Y","","<=1",1,0,null,1,"DAYS",5015],[800,"CDISCPILOT01","701","701","01-701-1153",19624,19798,"Placebo",0,79,"65-80",2,"WHITE",1,"F","Y","Y","Y","Week 16",16,"WEEK 16",10,108,19731,"Adas-Cog(11) Subscore","ACTOT",15,55,48,7,14.5833333333,"","Y","","85-140",112,4,85,140,"DAYS",5