{"creationDateTime":"2024-02-14T11:46:14","datasetJSONVersion":"1.0.0","fileOID":"CDISCPILOT01.ae","clinicalData":{"studyOID":"CDISCPILOT01","metaDataVersionOID":"MDV.CDISCPILOT01","itemGroupData":{"IG.AE":{"records":1191,"name":"AE","label":"Adverse Events","items":[{"OID":"ITEMGROUPDATASEQ","name":"ITEMGROUPDATASEQ","label":"Record Identifier","type":"integer"},{"OID":"IT.AE.STUDYID","name":"STUDYID","label":"Study Identifier","type":"string","length":12,"displayFormat":"."},{"OID":"IT.AE.DOMAIN","name":"DOMAIN","label":"Domain Abbreviation","type":"string","length":2,"displayFormat":"."},{"OID":"IT.AE.USUBJID","name":"USUBJID","label":"Unique Subject Identifier","type":"string","length":11,"displayFormat":"."},{"OID":"IT.AE.AESEQ","name":"AESEQ","label":"Sequence Number","type":"float","length":8,"displayFormat":"."},{"OID":"IT.AE.AESPID","name":"AESPID","label":"Sponsor-Defined Identifier","type":"string","length":3,"displayFormat":"."},{"OID":"IT.AE.AETERM","name":"AETERM","label":"Reported Term for the Adverse Event","type":"string","length":200,"displayFormat":"."},{"OID":"IT.AE.AELLT","name":"AELLT","label":"Lowest Level Term","type":"string","length":100,"displayFormat":"."},{"OID":"IT.AE.AELLTCD","name":"AELLTCD","label":"Lowest Level Term Code","type":"float","length":8,"displayFormat":"."},{"OID":"IT.AE.AEDECOD","name":"AEDECOD","label":"Dictionary-Derived Term","type":"string","length":200,"displayFormat":"."},{"OID":"IT.AE.AEPTCD","name":"AEPTCD","label":"Preferred Term Code","type":"float","length":8,"displayFormat":"."},{"OID":"IT.AE.AEHLT","name":"AEHLT","label":"High Level Term","type":"string","length":100,"displayFormat":"."},{"OID":"IT.AE.AEHLTCD","name":"AEHLTCD","label":"High Level Term Code","type":"float","length":8,"displayFormat":"."},{"OID":"IT.AE.AEHLGT","name":"AEHLGT","label":"High Level Group Term","type":"string","length":100,"displayFormat":"."},{"OID":"IT.AE.AEHLGTCD","name":"AEHLGTCD","label":"High Level Group Term Code","type":"float","length":8,"displayFormat":"."},{"OID":"IT.AE.AEBODSYS","name":"AEBODSYS","label":"Body System or Organ Class","type":"string","length":67,"displayFormat":"."},{"OID":"IT.AE.AEBDSYCD","name":"AEBDSYCD","label":"Body System or Organ Class Code","type":"float","length":8,"displayFormat":"."},{"OID":"IT.AE.AESOC","name":"AESOC","label":"Primary System Organ Class","type":"string","length":100,"displayFormat":"."},{"OID":"IT.AE.AESOCCD","name":"AESOCCD","label":"Primary System Organ Class Code","type":"float","length":8,"displayFormat":"."},{"OID":"IT.AE.AESEV","name":"AESEV","label":"Severity/Intensity","type":"string","length":8,"displayFormat":"."},{"OID":"IT.AE.AESER","name":"AESER","label":"Serious Event","type":"string","length":1,"displayFormat":"."},{"OID":"IT.AE.AEACN","name":"AEACN","label":"Action Taken with Study Treatment","type":"string","length":30,"displayFormat":"."},{"OID":"IT.AE.AEREL","name":"AEREL","label":"Causality","type":"string","length":8,"displayFormat":"."},{"OID":"IT.AE.AEOUT","name":"AEOUT","label":"Outcome of Adverse Event","type":"string","length":200,"displayFormat":"."},{"OID":"IT.AE.AESCAN","name":"AESCAN","label":"Involves Cancer","type":"string","length":1,"displayFormat":"."},{"OID":"IT.AE.AESCONG","name":"AESCONG","label":"Congenital Anomaly or Birth Defect","type":"string","length":1,"displayFormat":"."},{"OID":"IT.AE.AESDISAB","name":"AESDISAB","label":"Persist or Signif Disability/Incapacity","type":"string","length":1,"displayFormat":"."},{"OID":"IT.AE.AESDTH","name":"AESDTH","label":"Results in Death","type":"string","length":1,"displayFormat":"."},{"OID":"IT.AE.AESHOSP","name":"AESHOSP","label":"Requires or Prolongs Hospitalization","type":"string","length":1,"displayFormat":"."},{"OID":"IT.AE.AESLIFE","name":"AESLIFE","label":"Is Life Threatening","type":"string","length":1,"displayFormat":"."},{"OID":"IT.AE.AESOD","name":"AESOD","label":"Occurred with Overdose","type":"string","length":1,"displayFormat":"."},{"OID":"IT.AE.AEDTC","name":"AEDTC","label":"Date/Time of Collection","type":"string","length":10,"displayFormat":"."},{"OID":"IT.AE.AESTDTC","name":"AESTDTC","label":"Start Date/Time of Adverse Event","type":"string","length":10,"displayFormat":"."},{"OID":"IT.AE.AEENDTC","name":"AEENDTC","label":"End Date/Time of Adverse Event","type":"string","length":10,"displayFormat":"."},{"OID":"IT.AE.AESTDY","name":"AESTDY","label":"Study Day of Start of Adverse Event","type":"float","length":8,"displayFormat":"."},{"OID":"IT.AE.AEENDY","name":"AEENDY","label":"Study Day of End of Adverse Event","type":"float","length":8,"displayFormat":"."}],"itemData":[[1,"CDISCPILOT01","AE","01-701-1015",1,"E07","APPLICATION SITE ERYTHEMA","APPLICATION SITE REDNESS",null,"APPLICATION SITE ERYTHEMA",null,"HLT_0617",null,"HLGT_0152",null,"GENERAL DISORDERS AND ADMINISTRATION SITE CONDITIONS",null,"GENERAL DISORDERS AND ADMINISTRATION SITE CONDITIONS",null,"MILD","N","","PROBABLE","NOT RECOVERED/NOT RESOLVED","N","N","N","N","N","N","N","2014-01-16","2014-01-03","",2,null],[2,"CDISCPILOT01","AE","01-701-1015",2,"E08","APPLICATION SITE PRURITUS","APPLICATION SITE ITCHING",null,"APPLICATION SITE PRURITUS",null,"HLT_0317",null,"HLGT_0338",null,"GENERAL DISORDERS AND ADMINISTRATION SITE CONDITIONS",null,"GENERAL DISORDERS AND ADMINISTRATION SITE CONDITIONS",null,"MILD","N","","PROBABLE","NOT RECOVERED/NOT RESOLVED","N","N","N","N","N","N","N","2014-01-16","2014-01-03","",2,null],[3,"CDISCPILOT01","AE","01-701-1015",3,"E06","DIARRHOEA","DIARRHEA",null,"DIARRHOEA",null,"HLT_0148",null,"HLGT_0588",null,"GASTROINTESTINAL DISORDERS",null,"GASTROINTESTINAL DISORDERS",null,"MILD","N","","REMOTE","RECOVERED/RESOLVED","N","N","N","N","N","N","N","2014-01-16","2014-01-09","2014-01-11",8,10],[4,"CDISCPILOT01","AE","01-701-1023",3,"E10","ATRIOVENTRICULAR BLOCK SECOND DEGREE","AV BLOCK SECOND DEGREE",null,"ATRIOVENTRICULAR BLOCK SECOND DEGREE",null,"HLT_0415",null,"HLGT_0086",null,"CARDIAC DISORDERS",null,"CARDIAC DISORDERS",null,"MILD","N","","POSSIBLE","NOT RECOVERED/NOT RESOLVED","N","N","N","N","N","N","N","2012-08-27","2012-08-26","",22,null],[5,"CDISCPILOT01","AE","01-701-1023",1,"E08","ERYTHEMA","ERYTHEMA",null,"ERYTHEMA",null,"HLT_0284",null,"HLGT_0192",null,"SKIN AND SUBCUTANEOUS TISSUE DISORDERS",null,"SKIN AND SUBCUTANEOUS TISSUE DISORDERS",null,"MILD","N","","POSSIBLE","NOT RECOVERED/NOT RESOLVED","N","N","N","N","N","N","N","2012-08-27","2012-08-07","2012-08-30",3,26],[6,"CDISCPILOT01","AE","01-701-1023",2,"E09","ERYTHEMA","LOCALIZED ERYTHEMA",null,"ERYTHEMA",null,"HLT_0284",null,"HLGT_0192",null,"SKIN AND SUBCUTANEOUS TISSUE DISORDERS",null,"SKIN AND SUBCUTANEOUS TISSUE DISORDERS",null,"MODERATE","N","","PROBABLE","NOT RECOVERED/NOT RESOLVED","N","N","N","N","N","N","N","2012-08-27","2012-08-07","",3,null],[7,"CDISCPILOT01","AE","01-701-1023",4,"E08","ERYTHEMA","ERYTHEMA",null,"ERYTHEMA",null,"HLT_0284",null,"HLGT_0192",null,"SKIN AND SUBCUTANEOUS TISSUE DISORDERS",null,"SKIN AND SUBCUTANEOUS TISSUE DISORDERS",null,"MILD","N","","POSSIBLE","RECOVERED/RESOLVED","N","N","N","N","N","N","N","2012-09-02","2012-08-07","2012-08-30",3,26],[8,"CDISCPILOT01","AE","01-701-1028",1,"E04","APPLICATION SITE ERYTHEMA","APPLICATION SITE ERYTHEMA",null,"APPLICATION SITE ERYTHEMA",null,"HLT_0617",null,"HLGT_0152",null,"GENERAL DISORDERS AND ADMINISTRATION SITE CONDITIONS",null,"GENERAL DISORDERS AND ADMINISTRATION SITE CONDITIONS",null,"MILD","N","","POSSIBLE","NOT RECOVERED/NOT RESOLVED","N","N","N","N","N","N","N","2013-08-01","2013-07-21","",3,null],[9,"CDISCPILOT01","AE","01-701-1028",2,"E05","APPLICATION SITE PRURITUS","APPLICATION SITE ITCHING",null,"APPLICATION SITE PRURITUS",null,"HLT_0317",null,"HLGT_0338",null,"GENERAL DISORDERS AND ADMINISTRATION SITE CONDITIONS",null,"GENERAL DISORDERS AND ADMINISTRATION SITE CONDITIONS",null,"MILD","N","","PROBABLE","NOT RECOVERED/NOT RESOLVED","N","N","N","N","N","N","N","2013-08-14","2013-08-08","",21,null],[10,"CDISCPILOT01","AE","01-701-1034",1,"E08","APPLICATION SITE PRURITUS","APPLICATION SITE ITCHING",null,"APPLICATION SITE PRURITUS",null,"HLT_0317",null,"HLGT_0338",null,"GENERAL DISORDERS AND ADMINISTRATION SITE CONDITIONS",null,"GENERAL DISORDERS AND ADMINISTRATION SITE CONDITIONS",null,"MILD","N","","PROBABLE","NOT RECOVERED/NOT RESOLVED","N","N","N","N","N","N","N","2014-09-25","2014-08-27","",58,null],[11,"CDISCPILOT01","AE","01-701-1034",2,"E07","FATIGUE","FATIGUE",null,"FATIGUE",null,"HLT_0043",null,"HLGT_0181",null,"GENERAL DISORDERS AND ADMINISTRATION SITE CONDITIONS",null,"GENERAL DISORDERS AND ADMINISTRATION SITE CONDITIONS",null,"MILD","N","","POSSIBLE","NOT RECOVERED/NOT RESOLVED","N","N","N","N","N","N","N","2014-11-18","2014-11-02","",125,null],[12,"CDISCPILOT01","AE","01-701-1047",4,"E09","BUNDLE BRANCH BLOCK LEFT","LEFT BUNDLE BRANCH BLOCK",null,"BUNDLE BRANCH BLOCK LEFT",null,"HLT_0281",null,"HLGT_0721",null,"CARDIAC DISORDERS",null,"CARDIAC DISORDERS",null,"MILD","N","","NONE","NOT RECOVERED/NOT RESOLVED","N","N","N","N","N","N","N","2013-03-10","2013-03-10","",27,null],[13,"CDISCPILOT01","AE","01-701-1047",1,"E06","HIATUS HERNIA","HERNIA HIATAL",null,"HIATUS HERNIA",null,"HLT_0159",null,"HLGT_0109",null,"GASTROINTESTINAL DISORDERS",null,"GASTROINTESTINAL DISORDERS",null,"MODERATE","N","","NONE","NOT RECOVERED/NOT RESOLVED","N","N","N","N","N","N","N","2013-02-12","2013-02-12","2013-02-12",1,1],[14,"CDISCPILOT01","AE","01-701-1047",2,"E06","HIATUS HERNIA","HERNIA HIATAL",null,"HIATUS HERNIA",null,"HLT_0159",null,"HLGT_0109",null,"GASTROINTESTINAL DISORDERS",null,"GASTROINTESTINAL DISORDERS",null,"MODERATE","N","","NONE","RECOVERED/RESOLVED","N","N","N","N","N","N","N","2013-02-25","2013-02-12","2013-02-12",1,1],[15,"CDISCPILOT01","AE","01-701-1047",3,"E08","UPPER RESPIRATORY TRACT INFECTION","UPPER RESPIRATORY INFECTION",null,"UPPER RESPIRATORY TRACT INFECTION",null,"HLT_0520",null,"HLGT_0489",null,"INFECTIONS AND INFESTATIONS",null,"INFECTIONS AND INFESTATIONS",null,"MILD","N","","NONE","NOT RECOVERED/NOT RESOLVED","N","N","N","N","N","N","N","2013-03-10","2013-03-06","",23,null],[16,"CDISCPILOT01","AE","01-701-1097",4,"E06","APPLICATION SITE PRURITUS","APPLICATION SITE ITCHING",null,"APPLICATION SITE PRURITUS",null,"HLT_0317",null,"HLGT_0338",null,"GENERAL DISORDERS AND ADMINISTRATION SITE CONDITIONS",null,"GENERAL DISORDERS AND ADMINISTRATION SITE CONDITIONS",null,"MILD","N","","POSSIBLE","NOT RECOVERED/NOT RESOLVED","N","N","N","N","N","N","N","2014-02-26","2014-02-21","",52,null],[17,"CDISCPILOT01","AE","01-701-1097",10,"E06","APPLICATION SITE PRURITUS","APPLICATION SITE ITCHING",null,"APPLICATION SITE PRURITUS",null,"HLT_0317",null,"HLGT_0338",null,"GENERAL DISORDERS AND ADMINISTRATION SITE CONDITIONS",null,"GENERAL DISORDERS AND ADMINISTRATION SITE CONDITIONS",null,"MODERATE","N","","POSSIBLE","NOT RECOVERED/NOT RESOLVED","N","N","N","N","N","N","N","2014-05-21","2014-02-21","",52,null],[18,"CDISCPILOT01","AE","01-701-1097",3,"E07","APPLICATION SITE VESICLES","APPLICATION SITE BLISTER",null,"APPLICATION SITE VESICLES",null,"HLT_0180",null,"HLGT_0576",null,"GENERAL DISORDERS AND ADMINISTRATION SITE CONDITIONS",null,"GENERAL DISORDERS AND ADMINISTRATION SITE CONDITIONS",null,"MILD","N","","PROBABLE","RECOVERED/RESOLVED","N","N","N","N","N","N","N","2014-02-26","2014-02-20","2014-02-22",51,53],[19,"CDISCPILOT01","AE","01-701-1097",1,"E04","ERYTHEMA","ERYTHEMA",null,"ERYTHEMA",null,"HLT_0284",null,"HLGT_0192",null,"SKIN AND SUBCUTANEOUS TISSUE DISORDERS",null,"SKIN AND SUBCUTANEOUS TISSUE DISORDERS",null,"MILD","N","","POSSIBLE","NOT RECOVERED/NOT RESOLVED","N","N","N","N","N","N","N","2014-01-15","2014-01-03","",3,null],[20,"CDISCPILOT01","AE","01-701-1097",9,"E11","NASAL CONGESTION","NASAL CONGESTION",null,"NASAL CONGESTION",null,"HLT_0118",null,"HLGT_0549",null,"RESPIRATORY, THORACIC AND MEDIASTINAL DISORDERS",null,"RESPIRATORY, THORACIC AND MEDIASTINAL DISORDERS",null,"MILD","N","","NONE","RECOVERED/RESOLVED","N","N","N","N","N","N","N","2014-04-23","2014-04-19","2014-04-22",109,112],[21,"CDISCPILOT01","AE","01-701-1097",8,"E10","PHARYNGOLARYNGEAL PAIN","SORE THROAT",null,"PHARYNGOLARYNGEAL PAIN",null,"HLT_0130",null,"HLGT_0402",null,"RESPIRATORY, THORACIC AND MEDIASTINAL DISORDERS",null,"RESPIRATORY, THORACIC AND MEDIASTINAL DISORDERS",null,"MILD","N","","NONE","RECOVERED/RESOLVED","N","N","N","N","N","N","N","2014-04-23","2014-04-19","2014-04-22",109,112],[22,"CDISCPILOT01","AE","01-701-1097",2,"E05","PRURITUS GENERALISED","GENERALIZED PRURITUS",null,"PRURITUS GENERALISED",null,"HLT_0123",null,"HLGT_0689",null,"SKIN AND SUBCUTANEOUS TISSUE DISORDERS",null,"SKIN AND SUBCUTANEOUS TISSUE DISORDERS",null,"MODERATE","N","","POSSIBLE","RECOVERED/RESOLVED","N","N","N","N","N","N","N","2014-02-26","2014-02-20","2014-02-20",51,51],[23,"CDISCPILOT01","AE","01-701-1097",5,"E08","PRURITUS GENERALISED","GENERALIZED PRURITUS",null,"PRURITUS GENERALISED",null,"HLT_0123",null,"HLGT_0689",null,"SKIN AND SUBCUTANEOUS TISSUE DISORDERS",null,"SKIN AND SUBCUTANEOUS TISSUE DISORDERS",null,"MODERATE","N","","POSSIBLE","RECOVERED/RESOLVED","N","N","N","N","N","N","N","2014-03-26","2014-03-21","2014-03-21",80,80],[24,"CDISCPILOT01","AE","01-701-1097",6,"E12","PRURITUS GENERALISED","GENERALIZED PRURITUS",null,"PRURITUS GENERALISED",null,"HLT_0123",null,"HLGT_0689",null,"SKIN AND SUBCUTANEOUS TISSUE DISORDERS",null,"SKIN AND SUBCUTANEOUS TISSUE DISORDERS",null,"MODERATE","N","","POSSIBLE","RECOVERED/RESOLVED","N","N","N","N","N","N","N","2014-04-23","2014-03-31","2014-03-31",90,90],[25,"CDISCPILOT01","AE","01-701-1097",7,"E09","PRURITUS GENERALISED","GENERALIZED PRURITUS",null,"PRURITUS GENERALISED",null,"HLT_0123",null,"HLGT_0689",null,"SKIN AND SUBCUTANEOUS TISSUE DISORDERS",null,"SKIN AND SUBCUTANEOUS TISSUE DISORDERS",null,"MODERATE","N","","POSSIBLE","RECOVERED/RESOLVED","N","N","N","N","N","N","N","2014-04-23","2014-04-19","2014-04-20",109,110],[26,"CDISCPILOT01","AE","01-701-1111",7,"E16","ARTHRALGIA","GENERALIZED JOINT PAIN",null,"ARTHRALGIA",null,"HLT_0375",null,"HLGT_0610",null,"MUSCULOSKELETAL AND CONNECTIVE TISSUE DISORDERS",null,"MUSCULOSKELETAL AND CONNECTIVE TISSUE DISORDERS",null,"MODERATE","N","","NONE","NOT RECOVERED/NOT RESOLVED","N","N","N","N","N","N","N","2012-09-17","2012-09-13","",7,null],[27,"CDISCPILOT01","AE","01-701-1111",8,"E17","CELLULITIS","CELLULITIS OF LEG",null,"CELLULITIS",null,"HLT_0613",null,"HLGT_0066",null,"INFECTIONS AND INFESTATIONS",null,"INFECTIONS AND INFESTATIONS",null,"MODERATE","N","","NONE","NOT RECOVERED/NOT RESOLVED","N","N","N","N","N","N","N","2012-09-17","2012-09-13","",7,null],[28,"CDISCPILOT01","AE","01-701-1111",1,"E14","ERYTHEMA","ERYTHEMA",null,"ERYTHEMA",null,"HLT_0284",null,"HLGT_0192",null,"SKIN AND SUBCUTANEOUS TISSUE DISORDERS",null,"SKIN AND SUBCUTANEOUS TISSUE DISORDERS",null,"MILD","N","","NONE","NOT RECOVERED/NOT RESOLVED","N","N","N","N","N","N","N","2012-09-05","2012-09-02","2012-09-07",-5,1],[29,"CDISCPILOT01","AE","01-701-1111",4,"E14","ERYTHEMA","ERYTHEMA",null,"ERYTHEMA",null,"HLT_0284",null,"HLGT_0192",null,"SKIN AND SUBCUTANEOUS TISSUE DISORDERS",null,"SKIN AND SUBCUTANEOUS TISSUE DISORDERS",null,"MILD","N","","NONE","RECOVERED/RESOLVED","N","N","N","N","N","N","N","2012-09-17","2012-09-02","2012-09-07",-5,1],[30,"CDISCPILOT01","AE","01-701-1111",3,"E06","LOCALISED INFECTION","LOCALIZED INFECTION",null,"LOCALISED INFECTION",null,"HLT_0435",null,"HLGT_0557",null,"INFECTIONS AND INFESTATIONS",null,"INFECTIONS AND INFESTATIONS",null,"MODERATE","N","","NONE","NOT RECOVERED/NOT RESOLVED","N","N","N","N","N","N","N","2012-09-17","2012-07-08","",-61,null],[31,"CDISCPILOT01","AE","01-701-1111",6,"E18","MICTURITION URGENCY","URINARY URGENCY",null,"MICTURITION URGENCY",null,"HLT_0294",null,"HLGT_0483",null,"RENAL AND URINARY DISORDERS",null,"RENAL AND URINARY DISORDERS",null,"MILD","N","","NONE","NOT RECOVERED/NOT RESOLVED","N","N","N","N","N","N","N","2012-09-17","2012-09-07","",1,null],[32,"CDISCPILOT01","AE","01-701-1111",2,"E15","PRURITUS","ITCHING",null,"PRURITUS",null,"HLT_0778",null,"HLGT_0695",null,"SKIN AND SUBCUTANEOUS TISSUE DISORDERS",null,"SKIN AND SUBCUTANEOUS TISSUE DISORDERS",null,"MILD","N","","NONE","NOT RECOVERED/NOT RESOLVED","N","N","N","N","N","N","N","2012-09-05","2012-09-02","2012-09-07",-5,1],[33,"CDISCPILOT01","AE","01-701-1111",5,"E15","PRURITUS","ITCHING",null,"PRURITUS",null,"HLT_0778",null,"HLGT_0695",null,"SKIN AND SUBCUTANEOUS TISSUE DISORDERS",null,"SKIN AND SUBCUTANEOUS TISSUE DISORDERS",null,"MILD","N","","NONE","RECOVERED/RESOLVED","N","N","N","N","N","N","N","2012-09-17","2012-09-02","2012-09-07",-5,1],[34,"CDISCPILOT01","AE","01-701-1115",9,"E14","APPLICATION SITE DERMATITIS","APPLICATION SITE RASH",null,"APPLICATION SITE DERMATITIS",null,"HLT_0343",null,"HLGT_0241",null,"GENERAL DISORDERS AND ADMINISTRATION SITE CONDITIONS",null,"GENERAL DISORDERS AND ADMINISTRATION SITE CONDITIONS",null,"MODERATE","N","","PROBABLE","NOT RECOVERED/NOT RESOLVED","N","N","N","N","N","N","N","2013-01-23","2013-01-19","",51,null],[35,"CDISCPILOT01","AE","01-701-1115",1,"E09","APPLICATION SITE ERYTHEMA","APPLICATION SITE REDNESS",null,"APPLICATION SITE ERYTHEMA",null,"HLT_0617",null,"HLGT_0152",null,"GENERAL DISORDERS AND ADMINISTRATION SITE CONDITIONS",null,"GENERAL DISORDERS AND ADMINISTRATION SITE CONDITIONS",null,"MILD","N","","PROBABLE","NOT RECOVERED/NOT RESOLVED","N","N","N","N","N","N","N","2012-12-13","2012-12-02","",3,null],[36,"CDISCPILOT01","AE","01-701-1115",5,"E09","APPLICATION SITE ERYTHEMA","APPLICATION SITE REDNESS",null,"APPLICATION SITE ERYTHEMA",null,"HLT_0617",null,"HLGT_0152",null,"GENERAL DISORDERS AND ADMINISTRATION SITE CONDITIONS",null,"GENERAL DISORDERS AND ADMINISTRATION SITE CONDITIONS",null,"MODERATE","N","","PROBABLE","NOT RECOVERED/NOT RESOLVED","N","N","N","N","N","N","N","2013-01-23","2012-12-02","",3,null],[37,"CDISCPILOT01","AE","01-701-1115",3,"E10","APPLICATION SITE IRRITATION","APPLICATION SITE BURNING",null,"APPLICATION SITE IRRITATION",null,"HLT_0061",null,"HLGT_0346",null,"GENERAL DISORDERS AND ADMINISTRATION SITE CONDITIONS",null,"GENERAL DISORDERS AND ADMINISTRATION SITE CONDITIONS",null,"MILD","N","","POSSIBLE","NOT RECOVERED/NOT RESOLVED","N","N","N","N","N","N","N","2012-12-26","2012-12-26","2012-12-26",27,27],[38,"CDISCPILOT01","AE","01-701-1115",4,"E10","APPLICATION SITE IRRITATION","APPLICATION SITE BURNING",null,"APPLICATION SITE IRRITATION",null,"HLT_0061",null,"HLGT_0346",null,"GENERAL DISORDERS AND ADMINISTRATION SITE CONDITIONS",null,"GENERAL DISORDERS AND ADMINISTRATION SITE CONDITIONS",null,"MILD","N","","POSSIBLE","RECOVERED/RESOLVED","N","N","N","N","N","N","N","2012-12-28","2012-12-26","2012-12-26",27,27],[39,"CDISCPILOT01","AE","01-701-1115",8,"E12","APPLICATION SITE IRRITATION","APPLICATION SITE BURNING",null,"APPLICATION SITE IRRITATION",null,"HLT_0061",null,"HLGT_0346",null,"GENERAL DISORDERS AND ADMINISTRATION SITE CONDITIONS",null,"GENERAL DISORDERS AND ADMINISTRATION SITE CONDITIONS",null,"MODERATE","N","","PROBABLE","NOT RECOVERED/NOT RESOLVED","N","N","N","N","N","N","N","2013-01-23","2013-01-19","",51,null],[40,"CDISCPILOT01","AE","01-701-1115",2,"E11","APPLICATION SITE PRURITUS","APPLICATION SITE ITCHING",null,"APPLICATION SITE PRURITUS",null,"HLT_0317",null,"HLGT_0338",null,"GENERAL DISORDERS AND ADMINISTRATION SITE CONDITIONS",null,"GENERAL DISORDERS AND ADMINISTRATION SITE CONDITIONS",null,"MILD","N","","PROBABLE","NOT RECOVERED/NOT RESOLVED","N","N","N","N","N","N","N","2012-12-13","2012-12-02","",3,null],[41,"CDISCPILOT01","AE","01-701-1115",6,"E11","APPLICATION SITE PRURITUS","APPLICATION SITE ITCHING",null,"APPLICATION SITE PRURITUS",null,"HLT_0317",null,"HLGT_0338",null,"GENERAL DISORDERS AND ADMINISTRATION SITE CONDITIONS",null,"GENERAL DISORDERS AND ADMINISTRATION SITE CONDITIONS",null,"MODERATE","N","","PROBABLE","NOT RECOVERED/NOT RESOLVED","N","N","N","N","N","N","N","2013-01-23","2012-12-02","",3,null],[42,"CDISCPILOT01","AE","01-701-1115",7,"E13","FATIGUE","FATIGUE",null,"FATIGUE",null,"HLT_0043",null,"HLGT_0181",null,"GENERAL DISORDERS AND ADMINISTRATION SITE CONDITIONS",null,"GENERAL DISORDERS AND ADMINISTRATION SITE CONDITIONS",null,"MODERATE","N","","REMOTE","NOT RECOVERED/NOT RESOLVED","N","N","N","N","N","N","N","2013-01-23","2013-01-14","",46,null],[43,"CDISCPILOT01","AE","01-701-1118",1,"E06","COUGH","COUGH",null,"COUGH",null,"HLT_0701",null,"HLGT_0280",null,"RESPIRATORY, THORACIC AND MEDIASTINAL DISORDERS",null,"RESPIRATORY, THORACIC AND MEDIASTINAL DISORDERS",null,"MILD","N","","NONE","NOT RECOVERED/NOT RESOLVED","N","N","N","N","N","N","N","2014-03-10","2003","",null,null],[44,"CDISCPILOT01","AE","01-701-1130",5,"E09","EYE ALLERGY","EYE ALLERGY",null,"EYE ALLERGY",null,"HLT_0256",null,"HLGT_0071",null,"EYE DISORDERS",null,"EYE DISORDERS",null,"MILD","N","","NONE","RECOVERED/RESOLVED","N","N","N","N","N","N","N","2014-05-16","2014-05-09","2014-05-09",84,84],[45,"CDISCPILOT01","AE","01-701-1130",6,"E10","EYE PRURITUS","EYE ITCHING",null,"EYE PRURITUS",null,"HLT_0523",null,"HLGT_0240",null,"EYE DISORDERS",null,"EYE DISORDERS",null,"MILD","N","","REMOTE","NOT RECOVERED/NOT RESOLVED","N","N","N","N","N","N","N","2014-06-07","2014-05-22","",97,null],[46,"CDISCPILOT01","AE","01-701-1130",4,"E08","EYE SWELLING","EYES SWOLLEN",null,"EYE SWELLING",null,"HLT_0008",null,"HLGT_0466",null,"EYE DISORDERS",null,"EYE DISORDERS",null,"MILD","N","","NONE","RECOVERED/RESOLVED","N","N","N","N","N","N","N","2014-05-16","2014-05-09","2014-05-09",84,84],[47,"CDISCPILOT01","AE","01-701-1130",8,"E12","NASAL CONGESTION","NASAL CONGESTION",null,"NASAL CONGESTION",null,"HLT_0118",null,"HLGT_0549",null,"RESPIRATORY, THORACIC AND MEDIASTINAL DISORDERS",null,"RESPIRATORY, THORACIC AND MEDIASTINAL DISORDERS",null,"MILD","N","","REMOTE","NOT RECOVERED/NOT RESOLVED","N","N","N","N","N","N","N","2014-06-07","2014-05-22","",97,null],[48,"CDISCPILOT01","AE","01-701-1130",7,"E11","PRURITUS","ITCHING BOTH HANDS",null,"PRURITUS",null,"HLT_0778",null,"HLGT_0695",null,"SKIN AND SUBCUTANEOUS TISSUE DISORDERS",null,"SKIN AND SUBCUTANEOUS TISSUE DISORDERS",null,"MILD","N","","REMOTE","NOT RECOVERED/NOT RESOLVED","N","N","N","N","N","N","N","2014-06-07","2014-05-22","",97,null],[49,"CDISCPILOT01","AE","01-701-1130",2,"E07","PYREXIA","FEVER",null,"PYREXIA",null,"HLT_0310",null,"HLGT_0652",null,"GENERAL DISORDERS AND ADMINISTRATION SITE CONDITIONS",null,"GENERAL DISORDERS AND ADMINISTRATION SITE CONDITIONS",null,"MILD","N","","NONE","RECOVERED/RESOLVED","N","N","N","N","N","N","N","2014-03-15","2014-03-09","2014-03-09",23,23],[50,"CDISCPILOT01","AE","01-701-1130",1,"E06","URINARY TRACT INFECTION","URINARY TRACT INFECTION",null,"URINARY TRACT INFECTION",null,"HLT_0161",null,"HLGT_0093",null,"INFECTIONS AND INFESTATIONS",null,"INFECTIONS AND INFESTATIONS",null,"MILD","N","","NONE","NOT RECOVERED/NOT RESOLVED","N","N","N","N","N","N","N","2014-03-15","2014-03-09","2014-03-16",23,30],[51,"CDISCPILOT01","AE","01-701-1130",3,"E06","URINARY TRACT INFECTION","URINARY TRACT INFECTION",null,"URINARY TRACT INFECTION",null,"HLT_0161",null,"HLGT_0093",null,"INFECTIONS AND INFESTATIONS",null,"INFECTIONS AND INFESTATIONS",null,"MILD","N","","NONE","RECOVERED/RESOLVED","N","N","N","N","N","N","N","2014-03-17","2014-03-09","2014-03-16",23,30],[52,"CDISCPILOT01","AE","01-701-1133",1,"E04","APPLICATION SITE ERYTHEMA","APPLICATION SITE REDNESS",null,"APPLICATION SITE ERYTHEMA",null,"HLT_0617",null,"HLGT_0152",null,"GENERAL DISORDERS AND ADMINISTRATION SITE CONDITIONS",null,"GENERAL DISORDERS AND ADMINISTRATION SITE CONDITIONS",null,"MILD","N","","PROBABLE","NOT RECOVERED/NOT RESOLVED","N","N","N","N","N","N","N","2013-01-22","2012-12-27","",61,null],[53,"CDISCPILOT01","AE","01-701-1133",3,"E04","APPLICATION SITE ERYTHEMA","APPLICATION SITE REDNESS",null,"APPLICATION SITE ERYTHEMA",null,"HLT_0617",null,"HLGT_0152",null,"GENERAL DISORDERS AND ADMINISTRATION SITE CONDITIONS",null,"GENERAL DISORDERS AND ADMINISTRATION SITE CONDITIONS",null,"MODERATE","N","","PROBABLE","NOT RECOVERED/NOT RESOLVED","N","N","N","N","N","N","N","2013-02-18","2012-12-27","",61,null],[54,"CDISCPILOT01","AE","01-701-1133",2,"E05","APPLICATION SITE PRURITUS","APPLICATION SITE ITCHING",null,"APPLICATION SITE PRURITUS",null,"HLT_0317",null,"HLGT_0338",null,"GENERAL DISORDERS AND ADMINISTRATION SITE CONDITIONS",null,"GENERAL DISORDERS AND ADMINISTRATION SITE CONDITIONS",null,"MILD","N","","PROBABLE","NOT RECOVERED/NOT RESOLVED","N","N","N","N","N","N","N","2013-01-22","2012-12-27","",61,null],[55,"CDISCPILOT01","AE","01-701-1133",4,"E05","APPLICATION SITE PRURITUS","APPLICATION SITE ITCHING",null,"APPLICATION SITE PRURITUS",null,"HLT_0317",null,"HLGT_0338",null,"GENERAL DISORDERS AND ADMINISTRATION SITE CONDITIONS",null,"GENERAL DISORDERS AND ADMINISTRATION SITE CONDITIONS",null,"MODERATE","N","","PROBABLE","NOT RECOVERED/NOT RESOLVED","N","N","N","N","N","N","N","2013-02-18","2012-12-27","",61,null],[56,"CDISCPILOT01","AE","01-701-1146",5,"E12","APPLICATION SITE ERYTHEMA","APPLICATION SITE ERYTHEMA",null,"APPLICATION SITE ERYTHEMA",null,"HLT_0617",null,"HLGT_0152",null,"GENERAL DISORDERS AND ADMINISTRATION SITE CONDITIONS",null,"GENERAL DISORDERS AND ADMINISTRATION SITE CONDITIONS",null,"MILD","N","","PROBABLE","NOT RECOVERED/NOT RESOLVED","N","N","N","N","N","N","N","2013-06-16","2013-06-10","",22,null],[57,"CDISCPILOT01","AE","01-701-1146",7,"E12","APPLICATION SITE ERYTHEMA","APPLICATION SITE ERYTHEMA",null,"APPLICATION SITE ERYTHEMA",null,"HLT_0617",null,"HLGT_0152",null,"GENERAL DISORDERS AND ADMINISTRATION SITE CONDITIONS",null,"GENERAL DISORDERS AND ADMINISTRATION SITE CONDITIONS",null,"MODERATE","N","","PROBABLE","NOT RECOVERED/NOT RESOLVED","N","N","N","N","N","N","N","2013-06-30","2013-06-10","",22,null],[58,"CDISCPILOT01","AE","01-701-1146",3,"E10","APPLICATION SITE IRRITATION","APPLICATION SITE IRRITATION",null,"APPLICATION SITE IRRITATION",null,"HLT_0061",null,"HLGT_0346",null,"GENERAL DISORDERS AND ADMINISTRATION SITE CONDITIONS",null,"GENERAL DISORDERS AND ADMINISTRATION SITE CONDITIONS",null,"MILD","N","","PROBABLE","RECOVERED/RESOLVED","N","N","N","N","N","N","N","2013-06-03","2013-06-01","2013-06-02",13,14],[59,"CDISCPILOT01","AE","01-701-1146",11,"E16","APPLICATION SITE IRRITATION","APPLICATION SITE BURNING",null,"APPLICATION SITE IRRITATION",null,"HLT_0061",null,"HLGT_0346",null,"GENERAL DISORDERS AND ADMINISTRATION SITE CONDITIONS",null,"GENERAL DISORDERS AND ADMINISTRATION SITE CONDITIONS",null,"MODERATE","N","","PROBABLE","NOT RECOVERED/NOT RESOLVED","N","N","N","N","N","N","N","2013-06-30","2013-06-26","",38,null],[60,"CDISCPILOT01","AE","01-701-1146",9,"E14","APPLICATION SITE PAIN","APPLICATION SITE PAIN",null,"APPLICATION SITE PAIN",null,"HLT_0342",null,"HLGT_0085",null,"GENERAL DISORDERS AND ADMINISTRATION SITE CONDITIONS",null,"GENERAL DISORDERS AND ADMINISTRATION SITE CONDITIONS",null,"MODERATE","N","","PROBABLE","NOT RECOVERED/NOT RESOLVED","N","N","N","N","N","N","N","2013-06-30","2013-06-22","",34,null],[61,"CDISCPILOT01","AE","01-701-1146",6,"E13","APPLICATION SITE PRURITUS","APPLICATION SITE ITCHING",null,"APPLICATION SITE PRURITUS",null,"HLT_0317",null,"HLGT_0338",null,"GENERAL DISORDERS AND ADMINISTRATION SITE CONDITIONS",null,"GENERAL DISORDERS AND ADMINISTRATION SITE CONDITIONS",null,"MILD","N","","PROBABLE","NOT RECOVERED/NOT RESOLVED","N","N","N","N","N","N","N","2013-06-16","2013-06-10","",22,null],[62,"CDISCPILOT01","AE","01-701-1146",8,"E13","APPLICATION SITE PRURITUS","APPLICATION SITE ITCHING",null,"APPLICATION SITE PRURITUS",null,"HLT_0317",null,"HLGT_0338",null,"GENERAL DISORDERS AND ADMINISTRATION SITE CONDITIONS",null,"GENERAL DISORDERS AND ADMINISTRATION SITE CONDITIONS",null,"MODERATE","N","","PROBABLE","NOT RECOVERED/NOT RESOLVED","N","N","N","N","N","N","N","2013-06-30","2013-06-10","",22,null],[63,"CDISCPILOT01","AE","01-701-1146",10,"E15","APPLICATION SITE VESICLES","APPLICATION SITE VESICLES",null,"APPLICATION SITE VESICLES",null,"HLT_0180",null,"HLGT_0576",null,"GENERAL DISORDERS AND ADMINISTRATION SITE CONDITIONS",null,"GENERAL DISORDERS AND ADMINISTRATION SITE CONDITIONS",null,"MODERATE","N","","PROBABLE","NOT RECOVERED/NOT RESOLVED","N","N","N","N","N","N","N","2013-06-30","2013-06-26","",38,null],[64,"CDISCPILOT01","AE","01-701-1146",4,"E11","FATIGUE","FATIGUE",null,"FATIGUE",null,"HLT_0043",null,"HLGT_0181",null,"GENERAL DISORDERS AND ADMINISTRATION SITE CONDITIONS",null,"GENERAL DISORDERS AND ADMINISTRATION SITE CONDITIONS",null,"MILD","N","","POSSIBLE","NOT RECOVERED/NOT RESOLVED","N","N","N","N","N","N","N","2013-06-03","2013-06-03","",15,null],[65,"CDISCPILOT01","AE","01-701-1146",1,"E09","RASH","RASH",null,"RASH",null,"HLT_0762",null,"HLGT_0198",null,"SKIN AND SUBCUTANEOUS TISSUE DISORDERS",null,"SKIN AND SUBCUTANEOUS TISSUE DISORDERS",null,"MILD","N","","NONE","NOT RECOVERED/NOT RESOLVED","N","N","N","N","N","N","N","2013-05-18","2013-05-16","2013-06-02",-4,14],[66,"CDISCPILOT01","AE","01-701-1146",2,"E09","RASH","RASH",null,"RASH",null,"HLT_0762",null,"HLGT_0198",null,"SKIN AND SUBCUTANEOUS TISSUE DISORDERS",null,"SKIN AND SUBCUTANEOUS TISSUE DISORDERS",null,"MILD","N","","NONE","RECOVERED/RESOLVED","N","N","N","N","N","N","N","2013-06-03","2013-05-16","2013-06-02",-4,14],[67,"CDISCPILOT01","AE","01-701-1148",10,"E27","ACTINIC KERATOSIS","ACTINIC KERATOSIS",null,"ACTINIC KERATOSIS",null,"HLT_0609",null,"HLGT_0490",null,"SKIN AND SUBCUTANEOUS TISSUE DISORDERS",null,"SKIN AND SUBCUTANEOUS TISSUE DISORDERS",null,"MILD","N","","NONE","NOT RECOVERED/NOT RESOLVED","N","N","N","N","N","N","N","2014-02-20","2014-02-12","",174,null],[68,"CDISCPILOT01","AE","01-701-1148",1,"E20","APPLICATION SITE ERYTHEMA","APPLICATION SITE REDNESS",null,"APPLICATION SITE ERYTHEMA",null,"HLT_0617",null,"HLGT_0152",null,"GENERAL DISORDERS AND ADMINISTRATION SITE CONDITIONS",null,"GENERAL DISORDERS AND ADMINISTRATION SITE CONDITIONS",null,"MILD","N","","PROBABLE","NOT RECOVERED/NOT RESOLVED","N","N","N","N","N","N","N","2013-09-05","2013-08-25","",3,null],[69,"CDISCPILOT01","AE","01-701-1148",2,"E21","APPLICATION SITE PRURITUS","APPLICATION SITE ITCHING",null,"APPLICATION SITE PRURITUS",null,"HLT_0317",null,"HLGT_0338",null,"GENERAL DISORDERS AND ADMINISTRATION SITE CONDITIONS",null,"GENERAL DISORDERS AND ADMINISTRATION SITE CONDITIONS",null,"MILD","N","","PROBABLE","NOT RECOVERED/NOT RESOLVED","N","N","N","N","N","N","N","2013-09-05","2013-08-25","",3,null],[70,"CDISCPILOT01","AE","01-701-1148",6,"E25","CALCULUS URETHRAL","URETHRAL CALCULUS",null,"CALCULUS URETHRAL",null,"HLT_0550",null,"HLGT_0414",null,"RENAL AND URINARY DISORDERS",null,"RENAL AND URINARY DISORDERS",null,"MODERATE","N","","NONE","RECOVERED/RESOLVED","N","N","N","N","N","N","N","2014-01-10","2013-12-17","2013-12-17",117,117],[71,"CDISCPILOT01","AE","01-701-1148",9,"E26","DEPRESSED MOOD","DEPRESSED MOOD",null,"DEPRESSED MOOD",null,"HLT_0784",null,"HLGT_0122",null,"PSYCHIATRIC DISORDERS",null,"PSYCHIATRIC DISORDERS",null,"MODERATE","N","","NONE","NOT RECOVERED/NOT RESOLVED","N","N","N","N","N","N","N","2014-02-08","2013-07-29","",-25,null],[72,"CDISCPILOT01","AE","01-701-1148",8,"E03","DYSPEPSIA","INDIGESTION",null,"DYSPEPSIA",null,"HLT_0244",null,"HLGT_0716",null,"GASTROINTESTINAL DISORDERS",null,"GASTROINTESTINAL DISORDERS",null,"MODERATE","N","","NONE","NOT RECOVERED/NOT RESOLVED","N","N","N","N","N","N","N","2014-02-08","2012-02","",null,null],[73,"CDISCPILOT01","AE","01-701-1148",7,"E28","EPISTAXIS","NOSE BLEED",null,"EPISTAXIS",null,"HLT_0386",null,"HLGT_0577",null,"RESPIRATORY, THORACIC AND MEDIASTINAL DISORDERS",null,"RESPIRATORY, THORACIC AND MEDIASTINAL DISORDERS",null,"MILD","N","","NONE","RECOVERED/RESOLVED","N","N","N","N","N","N","N","2014-01-10","2014-01-03","2014-01-03",134,134],[74,"CDISCPILOT01","AE","01-701-1148",5,"E24","FLANK PAIN","FLANK PAIN",null,"FLANK PAIN",null,"HLT_0484",null,"HLGT_0543",null,"MUSCULOSKELETAL AND CONNECTIVE TISSUE DISORDERS",null,"MUSCULOSKELETAL AND CONNECTIVE TISSUE DISORDERS",null,"MODERATE","N","","NONE","RECOVERED/RESOLVED","N","N","N","N","N","N","N","2014-01-10","2013-12-15","2013-12-17",115,117],[75,"CDISCPILOT01","AE","01-701-1148",3,"E23","LOWER RESPIRATORY TRACT INFECTION","CHEST COLD",null,"LOWER RESPIRATORY TRACT INFECTION",null,"HLT_0052",null,"HLGT_0217",null,"INFECTIONS AND INFESTATIONS",null,"INFECTIONS AND INFESTATIONS",null,"MODERATE","N","","NONE","NOT RECOVERED/NOT RESOLVED","N","N","N","N","N","N","N","2013-10-18","2013-10-12","2013-11-10",51,80],[76,"CDISCPILOT01","AE","01-701-1148",4,"E23","LOWER RESPIRATORY TRACT INFECTION","CHEST COLD",null,"LOWER RESPIRATORY TRACT INFECTION",null,"HLT_0052",null,"HLGT_0217",null,"INFECTIONS AND INFESTATIONS",null,"INFECTIONS AND INFESTATIONS",null,"MODERATE","N","","NONE","RECOVERED/RESOLVED","N","N","N","N","N","N","N","2013-11-17","2013-10-12","2013-11-10",51,80],[77,"CDISCPILOT01","AE","01-701-1153",1,"E06","INCREASED APPETITE","INCREASED APPETITE",null,"INCREASED APPETITE",null,"HLT_0566",null,"HLGT_0769",null,"METABOLISM AND NUTRITION DISORDERS",null,"METABOLISM AND NUTRITION DISORDERS",null,"MILD","N","","POSSIBLE","NOT RECOVERED/NOT RESOLVED","N","N","N","N","N","N","N","2013-10-19","2013-10-13","2013-11-06",21,45],[78,"CDISCPILOT01","AE","01-701-1153",2,"E06","INCREASED APPETITE","INCREASED APPETITE",null,"INCREASED APPETITE",null,"HLT_0566",null,"HLGT_0769",null,"METABOLISM AND NUTRITION DISORDERS",null,"METABOLISM AND NUTRITION DISORDERS",null,"MILD","N","","POSSIBLE","RECOVERED/RESOLVED","N","N","N","N","N","N","N","2013-11-18","2013-10-13","2013-11-06",21,45],[79,"CDISCPILOT01","AE","01-701-1180",9,"E07","APPLICATION SITE ERYTHEMA","APPLICATION SITE ERYTHEMA",null,"APPLICATION SITE ERYTHEMA",null,"HLT_0617",null,"HLGT_0152",null,"GENERAL DISORDERS AND ADMINISTRATION SITE CONDITIONS",null,"GENERAL DISORDERS AND ADMINISTRATION SITE CONDITIONS",null,"MODERATE","N","","POSSIBLE","NOT RECOVERED/NOT RESOLVED","N","N","N","N","N","N","N","2013-03-23","2013-03-19","",36,null],[80,"CDISCPILOT01","AE","01-701-1180",8,"E06","APPLICATION SITE PRURITUS","APPLICATION SITE ITCHING",null,"APPLICATION SITE PRURITUS",null,"HLT_0317",null,"HLGT_0338",null,"GENERAL DISORDERS AND ADMINISTRATION SITE CONDITIONS",null,"GENERAL DISORDERS AND ADMINISTRATION SITE CONDITIONS",null,"MODERATE","N","","POSSIBLE","NOT RECOVERED/NOT RESOLVED","N","N","N","N","N","N","N","2013-03-23","2013-03-19","",36,null],[81,"CDISCPILOT01","AE","01-701-1180",7,"E05","APPLICATION SITE VESICLES","APPLICATION SITE BLISTER",null,"APPLICATION SITE VESICLES",null,"HLT_0180",null,"HLGT_0576",null,"GENERAL DISORDERS AND ADMINISTRATION SITE CONDITIONS",null,"GENERAL DISORDERS AND ADMINISTRATION SITE CONDITIONS",null,"MODERATE","N","","POSSIBLE","NOT RECOVERED/NOT RESOLVED","N","N","N","N","N","N","N","2013-03-23","2013-03-19","",36,null],[82,"CDISCPILOT01","AE","01-701-1180",4,"E04","HEADACHE","HEADACHE",null,"HEADACHE",null,"HLT_0064",null,"HLGT_0344",null,"NERVOUS SYSTEM DISORDERS",null,"NERVOUS SYSTEM DISORDERS",null,"MODERATE","N","","NONE","NOT RECOVERED/NOT RESOLVED","N","N","N","N","N","N","N","2013-03-11","2002","",null,null],[83,"CDISCPILOT01","AE","01-701-1180",3,"E02","MICTURITION URGENCY","URINARY URGENCY",null,"MICTURITION URGENCY",null,"HLT_0294",null,"HLGT_0483",null,"RENAL AND URINARY DISORDERS",null,"RENAL AND URINARY DISORDERS",null,"MILD","N","","POSSIBLE","NOT RECOVERED/NOT RESOLVED","N","N","N","N","N","N","N","2013-02-25","2013-02-15","2013-03-19",4,36],[84,"CDISCPILOT01","AE","01-701-1180",6,"E02","MICTURITION URGENCY","URINARY URGENCY",null,"MICTURITION URGENCY",null,"HLT_0294",null,"HLGT_0483",null,"RENAL AND URINARY DISORDERS",null,"RENAL AND URINARY DISORDERS",null,"MILD","N","","POSSIBLE","RECOVERED/RESOLVED","N","N","N","N","N","N","N","2013-03-23","2013-02-15","2013-03-19",4,36],[85,"CDISCPILOT01","AE","01-701-1180",5,"E03","NASOPHARYNGITIS","COLD",null,"NASOPHARYNGITIS",null,"HLT_0036",null,"HLGT_0709",null,"INFECTIONS AND INFESTATIONS",null,"INFECTIONS AND INFESTATIONS",null,"MILD","N","","NONE","RECOVERED/RESOLVED","N","N","N","N","N","N","N","2013-03-11","2013-03-06","2013-03-07",23,24],[86,"CDISCPILOT01","AE","01-701-1180",1,"E01","VOMITING","VOMITING",null,"VOMITING",null,"HLT_0016",null,"HLGT_0350",null,"GASTROINTESTINAL DISORDERS",null,"GASTROINTESTINAL DISORDERS",null,"MILD","N","","NONE","NOT RECOVERED/NOT RESOLVED","N","N","N","N","N","N","N","2013-02-12","2013-02-12","2013-02-12",1,1],[87,"CDISCPILOT01","AE","01-701-1180",2,"E01","VOMITING","VOMITING",null,"VOMITING",null,"HLT_0016",null,"HLGT_0350",null,"GASTROINTESTINAL DISORDERS",null,"GASTROINTESTINAL DISORDERS",null,"MILD","N","","NONE","RECOVERED/RESOLVED","N","N","N","N","N","N","N","2013-02-25","2013-02-12","2013-02-12",1,1],[88,"CDISCPILOT01","AE","01-701-1181",1,"E16","AGITATION","AGITATION",null,"AGITATION",null,"HLT_0140",null,"HLGT_0170",null,"PSYCHIATRIC DISORDERS",null,"PSYCHIATRIC DISORDERS",null,"MODERATE","N","","NONE","RECOVERED/RESOLVED","N","N","N","N","N","N","N","2013-12-12","2013-12-09","2013-12-09",5,5],[89,"CDISCPILOT01","AE","01-701-1188",7,"E09","APPLICATION SITE URTICARIA","APPLICATION SITE URTICARIA",null,"APPLICATION SITE URTICARIA",null,"HLT_0196",null,"HLGT_0233",null,"GENERAL DISORDERS AND ADMINISTRATION SITE CONDITIONS",null,"GENERAL DISORDERS AND ADMINISTRATION SITE CONDITIONS",null,"MILD","N","","PROBABLE","NOT RECOVERED/NOT RESOLVED","N","N","N","N","N","N","N","2013-03-25","2013-03-21","",35,null],[90,"CDISCPILOT01","AE","01-701-1188",1,"E04","ERYTHEMA","ERYTHEMA",null,"ERYTHEMA",null,"HLT_0284",null,"HLGT_0192",null,"SKIN AND SUBCUTANEOUS TISSUE DISORDERS",null,"SKIN AND SUBCUTANEOUS TISSUE DISORDERS",null,"MILD","N","","PROBABLE","NOT RECOVERED/NOT RESOLVED","N","N","N","N","N","N","N","2013-03-02","2013-02-16","",2,null],[91,"CDISCPILOT01","AE","01-701-1188",3,"E04","ERYTHEMA","ERYTHEMA",null,"ERYTHEMA",null,"HLT_0284",null,"HLGT_0192",null,"SKIN AND SUBCUTANEOUS TISSUE DISORDERS",null,"SKIN AND SUBCUTANEOUS TISSUE DISORDERS",null,"MODERATE","N","","PROBABLE","NOT RECOVERED/NOT RESOLVED","N","N","N","N","N","N","N","2013-03-16","2013-02-16","",2,null],[92,"CDISCPILOT01","AE","01-701-1188",2,"E05","PRURITUS","ITCHING",null,"PRURITUS",null,"HLT_0778",null,"HLGT_0695",null,"SKIN AND SUBCUTANEOUS TISSUE DISORDERS",null,"SKIN AND SUBCUTANEOUS TISSUE DISORDERS",null,"MILD","N","","PROBABLE","NOT RECOVERED/NOT RESOLVED","N","N","N","N","N","N","N","2013-03-02","2013-02-16","",2,null],[93,"CDISCPILOT01","AE","01-701-1188",4,"E05","PRURITUS","ITCHING",null,"PRURITUS",null,"HLT_0778",null,"HLGT_0695",null,"SKIN AND SUBCUTANEOUS TISSUE DISORDERS",null,"SKIN AND SUBCUTANEOUS TISSUE DISORDERS",null,"MODERATE","N","","PROBABLE","NOT RECOVERED/NOT RESOLVED","N","N","N","N","N","N","N","2013-03-16","2013-02-16","",2,null],[94,"CDISCPILOT01","AE","01-701-1188",5,"E06","URTICARIA","WELTS",null,"URTICARIA",null,"HLT_0420",null,"HLGT_0705",null,"SKIN AND SUBCUTANEOUS TISSUE DISORDERS",null,"SKIN AND SUBCUTANEOUS TISSUE DISORDERS",null,"MILD","N","","PROBABLE","NOT RECOVERED/NOT RESOLVED","N","N","N","N","N","N","N","2013-03-16","2013-03-04","",18,null],[95,"CDISCPILOT01","AE","01-701-1188",6,"E06","URTICARIA","WELTS",null,"URTICARIA",null,"HLT_0420",null,"HLGT_0705",null,"SKIN AND SUBCUTANEOUS TISSUE DISORDERS",null,"SKIN AND SUBCUTANEOUS TISSUE DISORDERS",null,"MODERATE","N","","PROBABLE","NOT RECOVERED/NOT RESOLVED","N","N","N","N","N","N","N","2013-03-25","2013-03-04","",18,null],[96,"CDISCPILOT01","AE","01-701-1188",8,"E10","URTICARIA","WELTS",null,"URTICARIA",null,"HLT_0420",null,"HLGT_0705",null,"SKIN AND SUBCUTANEOUS TISSUE DISORDERS",null,"SKIN AND SUBCUTANEOUS TISSUE DISORDERS",null,"MILD","N","","PROBABLE","NOT RECOVERED/NOT RESOLVED","N","N","N","N","N","N","N","2013-03-25","2013-03-21","",35,null],[97,"CDISCPILOT01","AE","01-701-1192",13,"E13","APPLICATION SITE ERYTHEMA","APPLICATION SITE REDNESS",null,"APPLICATION SITE ERYTHEMA",null,"HLT_0617",null,"HLGT_0152",null,"GENERAL DISORDERS AND ADMINISTRATION SITE CONDITIONS",null,"GENERAL DISORDERS AND ADMINISTRATION SITE CONDITIONS",null,"MILD","N","","PROBABLE","NOT RECOVERED/NOT RESOLVED","N","N","N","N","N","N","N","2012-12-13","2012-12-05","",137,null],[98,"CDISCPILOT01","AE","01-701-1192",12,"E12","APPLICATION SITE IRRITATION","APPLICATION SITE BURNING",null,"APPLICATION SITE IRRITATION",null,"HLT_0061",null,"HLGT_0346",null,"GENERAL DISORDERS AND ADMINISTRATION SITE CONDITIONS",null,"GENERAL DISORDERS AND ADMINISTRATION SITE CONDITIONS",null,"MILD","N","","PROBABLE","NOT RECOVERED/NOT RESOLVED","N","N","N","N","N","N","N","2012-12-13","2012-12-05","2012-12-16",137,148],[99,"CDISCPILOT01","AE","01-701-1192",15,"E12","APPLICATION SITE IRRITATION","APPLICATION SITE BURNING",null,"APPLICATION SITE IRRITATION",null,"HLT_0061",null,"HLGT_0346",null,"GENERAL DISORDERS AND ADMINISTRATION SITE CONDITIONS",null,"GENERAL DISORDERS AND ADMINISTRATION SITE CONDITIONS",null,"MILD","N","","PROBABLE","RECOVERED/RESOLVED","N","N","N","N","N","N","N","2013-01-11","2012-12-05","2012-12-16",137,148],[100,"CDISCPILOT01","AE","01-701-1192",14,"E14","APPLICATION SITE PRURITUS","APPLICATION SITE ITCHING",null,"APPLICATION SITE PRURITUS",null,"HLT_0317",null,"HLGT_0338",null,"GENERAL DISORDERS AND ADMINISTRATION SITE CONDITIONS",null,"GENERAL DISORDERS AND ADMINISTRATION SITE CONDITIONS",null,"MILD","N","","PROBABLE","NOT RECOVERED/NOT RESOLVED","N","N","N","N","N","N","N","2012-12-13","2012-12-05","",137,null],[101,"CDISCPILOT01","AE","01-701-1192",4,"E01","COUGH","COUGH",null,"COUGH",null,"HLT_0701",null,"HLGT_0280",null,"RESPIRATORY, THORACIC AND MEDIASTINAL DISORDERS",null,"RESPIRATORY, THORACIC AND MEDIASTINAL DISORDERS",null,"MODERATE","N","","NONE","NOT RECOVERED/NOT RESOLVED","N","N","N","N","N","N","N","2012-09-23","2010-06","",null,null],[102,"CDISCPILOT01","AE","01-701-1192",9,"E01","COUGH","COUGH",null,"COUGH",null,"HLT_0701",null,"HLGT_0280",null,"RESPIRATORY, THORACIC AND MEDIASTINAL DISORDERS",null,"RESPIRATORY, THORACIC AND MEDIASTINAL DISORDERS",null,"MILD","N","","NONE","NOT RECOVERED/NOT RESOLVED","N","N","N","N","N","N","N","2012-10-14","2010-06","",null,null],[103,"CDISCPILOT01","AE","01-701-1192",3,"E09","ERYTHEMA","ERYTHEMA FACIAL",null,"ERYTHEMA",null,"HLT_0284",null,"HLGT_0192",null,"SKIN AND SUBCUTANEOUS TISSUE DISORDERS",null,"SKIN AND SUBCUTANEOUS TISSUE DISORDERS",null,"MILD","N","","NONE","NOT RECOVERED/NOT RESOLVED","N","N","N","N","N","N","N","2012-08-07","2012-08-07","2012-09-14",17,55],[104,"CDISCPILOT01","AE","01-701-1192",6,"E09","ERYTHEMA","ERYTHEMA FACIAL",null,"ERYTHEMA",null,"HLT_0284",null,"HLGT_0192",null,"SKIN AND SUBCUTANEOUS TISSUE DISORDERS",null,"SKIN AND SUBCUTANEOUS TISSUE DISORDERS",null,"MILD","N","","NONE","RECOVERED/RESOLVED","N","N","N","N","N","N","N","2012-09-23","2012-08-07","2012-09-14",17,55],[105,"CDISCPILOT01","AE","01-701-1192",8,"E11","MUSCULAR WEAKNESS","MUSCULAR WEAKNESS",null,"MUSCULAR WEAKNESS",null,"HLT_0444",null,"HLGT_0211",null,"MUSCULOSKELETAL AND CONNECTIVE TISSUE DISORDERS",null,"MUSCULOSKELETAL AND CONNECTIVE TISSUE DISORDERS",null,"MODERATE","N","","NONE","NOT RECOVERED/NOT RESOLVED","N","N","N","N","N","N","N","2012-09-23","2012-09-07","2012-09-30",48,71],[106,"CDISCPILOT01","AE","01-701-1192",11,"E11","MUSCULAR WEAKNESS","MUSCULAR WEAKNESS",null,"MUSCULAR WEAKNESS",null,"HLT_0444",null,"HLGT_0211",null,"MUSCULOSKELETAL AND CONNECTIVE TISSUE DISORDERS",null,"MUSCULOSKELETAL AND CONNECTIVE TISSUE DISORDERS",null,"MODERATE","N","","NONE","RECOVERED/RESOLVED","N","N","N","N","N","N","N","2012-10-14","2012-09-07","2012-09-30",48,71],[107,"CDISCPILOT01","AE","01-701-1192",1,"E06","NASAL MUCOSA BIOPSY","NASAL MUCOSA BIOPSY",null,"NASAL MUCOSA BIOPSY",null,"HLT_0680",null,"HLGT_0396",null,"INVESTIGATIONS",null,"INVESTIGATIONS",null,"MILD","N","","NONE","RECOVERED/RESOLVED","N","N","N","N","N","N","N","2012-08-07","2012-08-03","2012-08-03",13,13],[108,"CDISCPILOT01","AE","01-701-1192",7,"E10","PNEUMONIA","PNEUMONIA",null,"PNEUMONIA",null,"HLT_0251",null,"HLGT_0671",null,"INFECTIONS AND INFESTATIONS",null,"INFECTIONS AND INFESTATIONS",null,"MODERATE","N","","NONE","NOT RECOVERED/NOT RESOLVED","N","N","N","N","Y","N","N","2012-09-23","2012-09-07","2012-10-06",48,77],[109,"CDISCPILOT01","AE","01-701-1192",10,"E10","PNEUMONIA","PNEUMONIA",null,"PNEUMONIA",null,"HLT_0251",null,"HLGT_0671",null,"INFECTIONS AND INFESTATIONS",null,"INFECTIONS AND INFESTATIONS",null,"MODERATE","N","","NONE","RECOVERED/RESOLVED","N","N","N","N","Y","N","N","2012-10-14","2012-09-07","2012-10-06",48,77],[110,"CDISCPILOT01","AE","01-701-1192",2,"E08","SECRETION DISCHARGE","SECRETION DISCHARGE",null,"SECRETION DISCHARGE",null,"HLT_0683",null,"HLGT_0575",null,"GENERAL DISORDERS AND ADMINISTRATION SITE CONDITIONS",null,"GENERAL DISORDERS AND ADMINISTRATION SITE CONDITIONS",null,"MILD","N","","NONE","NOT RECOVERED/NOT RESOLVED","N","N","N","N","N","N","N","2012-08-07","2012-08-07","2012-09-14",17,55],[111,"CDISCPILOT01","AE","01-701-1192",5,"E08","SECRETION DISCHARGE","SECRETION DISCHARGE",null,"SECRETION DISCHARGE",null,"HLT_0683",null,"HLGT_0575",null,"GENERAL DISORDERS AND ADMINISTRATION SITE CONDITIONS",null,"GENERAL DISORDERS AND ADMINISTRATION SITE CONDITIONS",null,"MILD","N","","NONE","RECOVERED/RESOLVED","N","N","N","N","N","N","N","2012-09-23","2012-08-07","2012-09-14",17,55],[112,"CDISCPILOT01","AE","01-701-1203",1,"E05","EYE LASER SURGERY","EYE LASER SURGERY",null,"EYE LASER SURGERY",null,"HLT_0355",null,"HLGT_0189",null,"SURGICAL AND MEDICAL PROCEDURES",null,"SURGICAL AND MEDICAL PROCEDURES",null,"MILD","N","","NONE","RECOVERED/RESOLVED","N","N","N","N","N","N","N","2013-03-30","2013-03-21","2013-03-21",48,48],[113,"CDISCPILOT01","AE","01-701-1211",5,"E05","APPLICATION SITE ERYTHEMA","APPLICATION SITE REDNESS",null,"APPLICATION SITE ERYTHEMA",null,"HLT_0617",null,"HLGT_0152",null,"GENERAL DISORDERS AND ADMINISTRATION SITE CONDITIONS",null,"GENERAL DISORDERS AND ADMINISTRATION SITE CONDITIONS",null,"MILD","N","","POSSIBLE","NOT RECOVERED/NOT RESOLVED","N","N","N","N","N","N","N","2012-12-11","2012-11-29","",15,null],[114,"CDISCPILOT01","AE","01-701-1211",1,"E08","APPLICATION SITE PRURITUS","APPLICATION SITE ITCHING",null,"APPLICATION SITE PRURITUS",null,"HLT_0317",null,"HLGT_0338",null,"GENERAL DISORDERS AND ADMINISTRATION SITE CONDITIONS",null,"GENERAL DISORDERS AND ADMINISTRATION SITE CONDITIONS",null,"MILD","N","","POSSIBLE","NOT RECOVERED/NOT RESOLVED","N","N","N","N","N","N","N","2012-11-28","2012-11-16","",2,null],[115,"CDISCPILOT01","AE","01-701-1211",7,"E12","CONFUSIONAL STATE","CONFUSION",null,"CONFUSIONAL STATE",null,"HLT_0642",null,"HLGT_0329",null,"PSYCHIATRIC DISORDERS",null,"PSYCHIATRIC DISORDERS",null,"MODERATE","N","","NONE","NOT RECOVERED/NOT RESOLVED","N","N","N","N","N","N","N","2013-01-14","2013-01-11","",58,null],[116,"CDISCPILOT01","AE","01-701-1211",8,"E13","DYSPNOEA","SHORTNESS OF BREATH",null,"DYSPNOEA",null,"HLT_0296",null,"HLGT_0255",null,"RESPIRATORY, THORACIC AND MEDIASTINAL DISORDERS",null,"RESPIRATORY, THORACIC AND MEDIASTINAL DISORDERS",null,"MODERATE","N","","NONE","NOT RECOVERED/NOT RESOLVED","N","N","N","N","N","N","N","2013-01-14","2013-01-11","",58,null],[117,"CDISCPILOT01","AE","01-701-1211",4,"E09","INCONTINENCE","INCONTINENCE",null,"INCONTINENCE",null,"HLT_0560",null,"HLGT_0503",null,"RENAL AND URINARY DISORDERS",null,"RENAL AND URINARY DISORDERS",null,"MILD","N","","NONE","NOT RECOVERED/NOT RESOLVED","N","N","N","N","N","N","N","2012-11-28","2012-11-22","",8,null],[118,"CDISCPILOT01","AE","01-701-1211",2,"E03","JOINT DISLOCATION","SHOULDER DISLOCATION",null,"JOINT DISLOCATION",null,"HLT_0035",null,"HLGT_0227",null,"INJURY, POISONING AND PROCEDURAL COMPLICATIONS",null,"INJURY, POISONING AND PROCEDURAL COMPLICATIONS",null,"MODERATE","N","","NONE","RECOVERED/RESOLVED","N","N","N","N","N","N","N","2012-11-28","2012-11-21","2012-11-21",7,7],[119,"CDISCPILOT01","AE","01-701-1211",3,"E04","SHOULDER PAIN","SHOULDER PAIN",null,"SHOULDER PAIN",null,"HLT_0527",null,"HLGT_0288",null,"MUSCULOSKELETAL AND CONNECTIVE TISSUE DISORDERS",null,"MUSCULOSKELETAL AND CONNECTIVE TISSUE DISORDERS",null,"MILD","N","","NONE","NOT RECOVERED/NOT RESOLVED","N","N","N","N","N","N","N","2012-11-28","2012-11-21","",7,null],[120,"CDISCPILOT01","AE","01-701-1211",6,"E06","SKIN LACERATION","LACERATION OF FACE",null,"SKIN LACERATION",null,"HLT_0075",null,"HLGT_0118",null,"INJURY, POISONING AND PROCEDURAL COMPLICATIONS",null,"INJURY, POISONING AND PROCEDURAL COMPLICATIONS",null,"MILD","N","","NONE","NOT RECOVERED/NOT RESOLVED","N","N","N","N","N","N","N","2012-12-11","2012-12-09","",25,null],[121,"CDISCPILOT01","AE","01-701-1211",9,"E11","SUDDEN DEATH","SUDDEN DEATH",null,"SUDDEN DEATH",null,"HLT_0142",null,"HLGT_0272",null,"GENERAL DISORDERS AND ADMINISTRATION SITE CONDITIONS",null,"GENERAL DISORDERS AND ADMINISTRATION SITE CONDITIONS",null,"SEVERE","N","","NONE","FATAL","N","N","N","Y","N","Y","N","2013-01-14","2013-01-14","2013-01-14",61,61],[122,"CDISCPILOT01","AE","01-701-1239",4,"E13","APPLICATION SITE IRRITATION","APPLICATION SITE IRRITATION",null,"APPLICATION SITE IRRITATION",null,"HLT_0061",null,"HLGT_0346",null,"GENERAL DISORDERS AND ADMINISTRATION SITE CONDITIONS",null,"GENERAL DISORDERS AND ADMINISTRATION SITE CONDITIONS",null,"MILD","N","","PROBABLE","NOT RECOVERED/NOT RESOLVED","N","N","N","N","N","N","N","2014-01-25","2014-01-20","2014-02-08",10,29],[123,"CDISCPILOT01","AE","01-701-1239",5,"E13","APPLICATION SITE IRRITATION","APPLICATION SITE IRRITATION",null,"APPLICATION SITE IRRITATION",null,"HLT_0061",null,"HLGT_0346",null,"GENERAL DISORDERS AND ADMINISTRATION SITE CONDITIONS",null,"GENERAL DISORDERS AND ADMINISTRATION SITE CONDITIONS",null,"MILD","N","","PROBABLE","RECOVERED/RESOLVED","N","N","N","N","N","N","N","2014-02-10","2014-01-20","2014-02-08",10,29],[124,"CDISCPILOT01","AE","01-701-1239",1,"E11","ERYTHEMA","ERYTHEMA",null,"ERYTHEMA",null,"HLT_0284",null,"HLGT_0192",null,"SKIN AND SUBCUTANEOUS TISSUE DISORDERS",null,"SKIN AND SUBCUTANEOUS TISSUE DISORDERS",null,"MILD","N","","POSSIBLE","NOT RECOVERED/NOT RESOLVED","N","N","N","N","N","N","N","2014-01-25","2014-01-12","",2,null],[125,"CDISCPILOT01","AE","01-701-1239",6,"E11","ERYTHEMA","ERYTHEMA",null,"ERYTHEMA",null,"HLT_0284",null,"HLGT_0192",null,"SKIN AND SUBCUTANEOUS TISSUE DISORDERS",null,"SKIN AND SUBCUTANEOUS TISSUE DISORDERS",null,"MODERATE","N","","POSSIBLE","NOT RECOVERED/NOT RESOLVED","N","N","N","N","N","N","N","2014-02-19","2014-01-12","",2,null],[126,"CDISCPILOT01","AE","01-701-1239",9,"E16","FATIGUE","FATIGUE",null,"FATIGUE",null,"HLT_0043",null,"HLGT_0181",null,"GENERAL DISORDERS AND ADMINISTRATION SITE CONDITIONS",null,"GENERAL DISORDERS AND ADMINISTRATION SITE CONDITIONS",null,"MILD","N","","REMOTE","NOT RECOVERED/NOT RESOLVED","N","N","N","N","N","N","N","2014-04-02","2014-03","",null,null],[127,"CDISCPILOT01","AE","01-701-1239",10,"E17","HORDEOLUM","STYE",null,"HORDEOLUM",null,"HLT_0604",null,"HLGT_0290",null,"INFECTIONS AND INFESTATIONS",null,"INFECTIONS AND INFESTATIONS",null,"MILD","N","","NONE","NOT RECOVERED/NOT RESOLVED","N","N","N","N","N","N","N","2014-05-02","2014-04","",null,null],[128,"CDISCPILOT01","AE","01-701-1239",3,"E12","PRURITUS","ITCHING",null,"PRURITUS",null,"HLT_0778",null,"HLGT_0695",null,"SKIN AND SUBCUTANEOUS TISSUE DISORDERS",null,"SKIN AND SUBCUTANEOUS TISSUE DISORDERS",null,"MILD","N","","POSSIBLE","NOT RECOVERED/NOT RESOLVED","N","N","N","N","N","N","N","2014-01-25","2014-01-13","",3,null],[129,"CDISCPILOT01","AE","01-701-1239",2,"E15","SKIN ODOUR ABNORMAL","SKIN ODOR ABNORMAL",null,"SKIN ODOUR ABNORMAL",null,"HLT_0510",null,"HLGT_0184",null,"SKIN AND SUBCUTANEOUS TISSUE DISORDERS",null,"SKIN AND SUBCUTANEOUS TISSUE DISORDERS",null,"MILD","N","","REMOTE","NOT RECOVERED/NOT RESOLVED","N","N","N","N","N","N","N","2014-01-25","2014-01-12","",2,null],[130,"CDISCPILOT01","AE","01-701-1239",7,"E14","UPPER RESPIRATORY TRACT INFECTION","UPPER RESPIRATORY INFECTION",null,"UPPER RESPIRATORY TRACT INFECTION",null,"HLT_0520",null,"HLGT_0489",null,"INFECTIONS AND INFESTATIONS",null,"INFECTIONS AND INFESTATIONS",null,"MILD","N","","NONE","NOT RECOVERED/NOT RESOLVED","N","N","N","N","N","N","N","2014-03-06","2014-02-20","2014-03-12",41,61],[131,"CDISCPILOT01","AE","01-701-1239",8,"E14","UPPER RESPIRATORY TRACT INFECTION","UPPER RESPIRATORY INFECTION",null,"UPPER RESPIRATORY TRACT INFECTION",null,"HLT_0520",null,"HLGT_0489",null,"INFECTIONS AND INFESTATIONS",null,"INFECTIONS AND INFESTATIONS",null,"MILD","N","","NONE","RECOVERED/RESOLVED","N","N","N","N","N","N","N","2014-04-02","2014-02-20","2014-03-12",41,61],[132,"CDISCPILOT01","AE","01-701-1275",7,"E09","COUGH","COUGH",null,"COUGH",null,"HLT_0701",null,"HLGT_0280",null,"RESPIRATORY, THORACIC AND MEDIASTINAL DISORDERS",null,"RESPIRATORY, THORACIC AND MEDIASTINAL DISORDERS",null,"MILD","N","","NONE","NOT RECOVERED/NOT RESOLVED","N","N","N","N","N","N","N","2014-03-22","2014-03-12","2014-03-27",34,49],[133,"CDISCPILOT01","AE","01-701-1275",9,"E09","COUGH","COUGH",null,"COUGH",null,"HLT_0701",null,"HLGT_0280",null,"RESPIRATORY, THORACIC AND MEDIASTINAL DISORDERS",null,"RESPIRATORY, THORACIC AND MEDIASTINAL DISORDERS",null,"MILD","N","","NONE","RECOVERED/RESOLVED","N","N","N","N","N","N","N","2014-04-05","2014-03-12","2014-03-27",34,49],[134,"CDISCPILOT01","AE","01-701-1275",3,"E06","ERYTHEMA","ERYTHEMA",null,"ERYTHEMA",null,"HLT_0284",null,"HLGT_0192",null,"SKIN AND SUBCUTANEOUS TISSUE DISORDERS",null,"SKIN AND SUBCUTANEOUS TISSUE DISORDERS",null,"MILD","N","","POSSIBLE","NOT RECOVERED/NOT RESOLVED","N","N","N","N","N","N","N","2014-03-07","2014-02-24","2014-06-12",18,126],[135,"CDISCPILOT01","AE","01-701-1275",12,"E06","ERYTHEMA","ERYTHEMA",null,"ERYTHEMA",null,"HLT_0284",null,"HLGT_0192",null,"SKIN AND SUBCUTANEOUS TISSUE DISORDERS",null,"SKIN AND SUBCUTANEOUS TISSUE DISORDERS",null,"MILD","N","","POSSIBLE","RECOVERED/RESOLVED","N","N","N","N","N","N","N","2014-06-14","2014-02-24","2014-06-12",18,126],[136,"CDISCPILOT01","AE","01-701-1275",8,"E10","NASAL CONGESTION","NASAL CONGESTION",null,"NASAL CONGESTION",null,"HLT_0118",null,"HLGT_0549",null,"RESPIRATORY, THORACIC AND MEDIASTINAL DISORDERS",null,"RESPIRATORY, THORACIC AND MEDIASTINAL DISORDERS",null,"MILD","N","","NONE","NOT RECOVERED/NOT RESOLVED","N","N","N","N","N","N","N","2014-03-22","2014-03-12","2014-03-27",34,49],[137,"CDISCPILOT01","AE","01-701-1275",10,"E10","NASAL CONGESTION","NASAL CONGESTION",null,"NASAL CONGESTION",null,"HLT_0118",null,"HLGT_0549",null,"RESPIRATORY, THORACIC AND MEDIASTINAL DISORDERS",null,"RESPIRATORY, THORACIC AND MEDIASTINAL DISORDERS",null,"MILD","N","","NONE","RECOVERED/RESOLVED","N","N","N","N","N","N","N","2014-04-05","2014-03-12","2014-03-27",34,49],[138,"CDISCPILOT01","AE","01-701-1275",1,"E04","NAUSEA","NAUSEA",null,"NAUSEA",null,"HLT_0742",null,"HLGT_0326",null,"GASTROINTESTINAL DISORDERS",null,"GASTROINTESTINAL DISORDERS",null,"MILD","N","","POSSIBLE","NOT RECOVERED/NOT RESOLVED","N","N","N","N","N","N","N","2014-02-22","2014-02-13","2014-06-03",7,117],[139,"CDISCPILOT01","AE","01-701-1275",11,"E04","NAUSEA","NAUSEA",null,"NAUSEA",null,"HLT_0742",null,"HLGT_0326",null,"GASTROINTESTINAL DISORDERS",null,"GASTROINTESTINAL DISORDERS",null,"MILD","N","","POSSIBLE","RECOVERED/RESOLVED","N","N","N","N","N","N","N","2014-06-14","2014-02-13","2014-06-03",7,117],[140,"CDISCPILOT01","AE","01-701-1275",5,"E08","PAROSMIA","STRANGE SMELL SENSATION",null,"PAROSMIA",null,"HLT_0258",null,"HLGT_0471",null,"NERVOUS SYSTEM DISORDERS",null,"NERVOUS SYSTEM DISORDERS",null,"MILD","N","","POSSIBLE","NOT RECOVERED/NOT RESOLVED","N","N","N","N","N","N","N","2014-03-07","2014-02-24","2014-06-03",18,117],[141,"CDISCPILOT01","AE","01-701-1275",14,"E08","PAROSMIA","STRANGE SMELL SENSATION",null,"PAROSMIA",null,"HLT_0258",null,"HLGT_0471",null,"NERVOUS SYSTEM DISORDERS",null,"NERVOUS SYSTEM DISORDERS",null,"MILD","N","","POSSIBLE","RECOVERED/RESOLVED","N","N","N","N","N","N","N","2014-06-14","2014-02-24","2014-06-03",18,117],[142,"CDISCPILOT01","AE","01-701-1275",6,"E11","PRURITUS","ITCHING",null,"PRURITUS",null,"HLT_0778",null,"HLGT_0695",null,"SKIN AND SUBCUTANEOUS TISSUE DISORDERS",null,"SKIN AND SUBCUTANEOUS TISSUE DISORDERS",null,"MILD","N","","POSSIBLE","NOT RECOVERED/NOT RESOLVED","N","N","N","N","N","N","N","2014-03-07","2014-02-24","2014-06-12",18,126],[143,"CDISCPILOT01","AE","01-701-1275",15,"E11","PRURITUS","ITCHING",null,"PRURITUS",null,"HLT_0778",null,"HLGT_0695",null,"SKIN AND SUBCUTANEOUS TISSUE DISORDERS",null,"SKIN AND SUBCUTANEOUS TISSUE DISORDERS",null,"MILD","N","","POSSIBLE","RECOVERED/RESOLVED","N","N","N","N","N","N","N","2014-06-14","2014-02-24","2014-06-12",18,126],[144,"CDISCPILOT01","AE","01-701-1275",4,"E07","SALIVARY HYPERSECRETION","HYPERSALIVATION",null,"SALIVARY HYPERSECRETION",null,"HLT_0374",null,"HLGT_0488",null,"GASTROINTESTINAL DISORDERS",null,"GASTROINTESTINAL DISORDERS",null,"MILD","N","","POSSIBLE","NOT RECOVERED/NOT RESOLVED","N","N","N","N","N","N","N","2014-03-07","2014-02-24","2014-06-03",18,117],[145,"CDISCPILOT01","AE","01-701-1275",13,"E07","SALIVARY HYPERSECRETION","HYPERSALIVATION",null,"SALIVARY HYPERSECRETION",null,"HLT_0374",null,"HLGT_0488",null,"GASTROINTESTINAL DISORDERS",null,"GASTROINTESTINAL DISORDERS",null,"MILD","N","","POSSIBLE","RECOVERED/RESOLVED","N","N","N","N","N","N","N","2014-06-14","2014-02-24","2014-06-03",18,117],[146,"CDISCPILOT01","AE","01-701-1275",2,"E05","VOMITING","VOMITING",null,"VOMITING",null,"HLT_0016",null,"HLGT_0350",null,"GASTROINTESTINAL DISORDERS",null,"GASTROINTESTINAL DISORDERS",null,"MILD","N","","POSSIBLE","RECOVERED/RESOLVED","N","N","N","N","N","N","N","2014-03-07","2014-02-23","2014-02-23",17,17],[147,"CDISCPILOT01","AE","01-701-1287",3,"E04","APPLICATION SITE ERYTHEMA","APPLICATION SITE REDNESS",null,"APPLICATION SITE ERYTHEMA",null,"HLT_0617",null,"HLGT_0152",null,"GENERAL DISORDERS AND ADMINISTRATION SITE CONDITIONS",null,"GENERAL DISORDERS AND ADMINISTRATION SITE CONDITIONS",null,"MILD","N","","PROBABLE","NOT RECOVERED/NOT RESOLVED","N","N","N","N","N","N","N","2014-03-21","2014-03-09","",44,null],[148,"CDISCPILOT01","AE","01-701-1287",2,"E03","APPLICATION SITE PRURITUS","APPLICATION SITE ITCHING",null,"APPLICATION SITE PRURITUS",null,"HLT_0317",null,"HLGT_0338",null,"GENERAL DISORDERS AND ADMINISTRATION SITE CONDITIONS",null,"GENERAL DISORDERS AND ADMINISTRATION SITE CONDITIONS",null,"MILD","N","","POSSIBLE","NOT RECOVERED/NOT RESOLVED","N","N","N","N","N","N","N","2014-03-06","2014-02-22","",29,null],[149,"CDISCPILOT01","AE","01-701-1287",4,"E05","RHINORRHOEA","RUNNY NOSE",null,"RHINORRHOEA",null,"HLT_0635",null,"HLGT_0460",null,"RESPIRATORY, THORACIC AND MEDIASTINAL DISORDERS",null,"RESPIRATORY, THORACIC AND MEDIASTINAL DISORDERS",null,"MILD","N","","NONE","NOT RECOVERED/NOT RESOLVED","N","N","N","N","N","N","N","2014-07-12","2014-07-09","2014-07-12",166,169],[150,"CDISCPILOT01","AE","01-701-1287",5,"E05","RHINORRHOEA","RUNNY NOSE",null,"RHINORRHOEA",null,"HLT_0635",null,"HLGT_0460",null,"RESPIRATORY, THORACIC AND MEDIASTINAL DISORDERS",null,"RESPIRATORY, THORACIC AND MEDIASTINAL DISORDERS",null,"MILD","N","","NONE","RECOVERED/RESOLVED","N","N","N","N","N","N","N","2014-07-26","2014-07-09","2014-07-12",166,169],[151,"CDISCPILOT01","AE","01-701-1287",1,"E02","SALIVARY HYPERSECRETION","INCREASED SALIVATION",null,"SALIVARY HYPERSECRETION",null,"HLT_0374",null,"HLGT_0488",null,"GASTROINTESTINAL DISORDERS",null,"GASTROINTESTINAL DISORDERS",null,"MILD","N","","NONE","NOT RECOVERED/NOT RESOLVED","N","N","N","N","N","N","N","2014-02-11","2014-01-26","",2,null],[152,"CDISCPILOT01","AE","01-701-1294",3,"E08","APPLICATION SITE ERYTHEMA","APPLICATION SITE REDNESS",null,"APPLICATION SITE ERYTHEMA",null,"HLT_0617",null,"HLGT_0152",null,"GENERAL DISORDERS AND ADMINISTRATION SITE CONDITIONS",null,"GENERAL DISORDERS AND ADMINISTRATION SITE CONDITIONS",null,"MILD","N","","PROBABLE","NOT RECOVERED/NOT RESOLVED","N","N","N","N","N","N","N","2013-05-22","2013-05-19","",57,null],[153,"CDISCPILOT01","AE","01-701-1294",5,"E08","APPLICATION SITE ERYTHEMA","APPLICATION SITE REDNESS",null,"APPLICATION SITE ERYTHEMA",null,"HLT_0617",null,"HLGT_0152",null,"GENERAL DISORDERS AND ADMINISTRATION SITE CONDITIONS",null,"GENERAL DISORDERS AND ADMINISTRATION SITE CONDITIONS",null,"MODERATE","N","","PROBABLE","NOT RECOVERED/NOT RESOLVED","N","N","N","N","N","N","N","2013-06-14","2013-05-19","",57,null],[154,"CDISCPILOT01","AE","01-701-1294",1,"E06","APPLICATION SITE PRURITUS","APPLICATION SITE ITCHING",null,"APPLICATION SITE PRURITUS",null,"HLT_0317",null,"HLGT_0338",null,"GENERAL DISORDERS AND ADMINISTRATION SITE CONDITIONS",null,"GENERAL DISORDERS AND ADMINISTRATION SITE CONDITIONS",null,"MODERATE","N","","NONE","RECOVERED/RESOLVED","N","N","N","N","N","N","N","2013-03-24","2013-03-22","2013-03-23",-2,-1],[155,"CDISCPILOT01","AE","01-701-1294",2,"E07","APPLICATION SITE PRURITUS","APPLICATION SITE ITCHING",null,"APPLICATION SITE PRURITUS",null,"HLT_0317",null,"HLGT_0338",null,"GENERAL DISORDERS AND ADMINISTRATION SITE CONDITIONS",null,"GENERAL DISORDERS AND ADMINISTRATION SITE CONDITIONS",null,"MILD","N","","POSSIBLE","NOT RECOVERED/NOT RESOLVED","N","N","N","N","N","N","N","2013-05-22","2013-05-19","",57,null],[156,"CDISCPILOT01","AE","01-701-1294",4,"E07","APPLICATION SITE PRURITUS","APPLICATION SITE ITCHING",null,"APPLICATION SITE PRURITUS",null,"HLT_0317",null,"HLGT_0338",null,"GENERAL DISORDERS AND ADMINISTRATION SITE CONDITIONS",null,"GENERAL DISORDERS AND ADMINISTRATION SITE CONDITIONS",null,"MODERATE","N","","POSSIBLE","NOT RECOVERED/NOT RESOLVED","N","N","N","N","N","N","N","2013-06-14","2013-05-19","",57,null],[157,"CDISCPILOT01","AE","01-701-1294",6,"E09","RASH ERYTHEMATOUS","ERYTHEMATOUS RASH",null,"RASH ERYTHEMATOUS",null,"HLT_0336",null,"HLGT_0701",null,"SKIN AND SUBCUTANEOUS TISSUE DISORDERS",null,"SKIN AND SUBCUTANEOUS TISSUE DISORDERS",null,"MODERATE","N","","PROBABLE","NOT RECOVERED/NOT RESOLVED","N","N","N","N","N","N","N","2013-06-14","2013-06-10","",79,null],[158,"CDISCPILOT01","AE","01-701-1302",16,"E27","APPLICATION SITE ERYTHEMA","APPLICATION SITE REDNESS",null,"APPLICATION SITE ERYTHEMA",null,"HLT_0617",null,"HLGT_0152",null,"GENERAL DISORDERS AND ADMINISTRATION SITE CONDITIONS",null,"GENERAL DISORDERS AND ADMINISTRATION SITE CONDITIONS",null,"MILD","N","","PROBABLE","NOT RECOVERED/NOT RESOLVED","N","N","N","N","N","N","N","2013-10-22","2013-10-15","",48,null],[159,"CDISCPILOT01","AE","01-701-1302",1,"E21","APPLICATION SITE PERSPIRATION","APPLICATION SITE PERSPIRATION",null,"APPLICATION SITE PERSPIRATION",null,"HLT_0283",null,"HLGT_0403",null,"GENERAL DISORDERS AND ADMINISTRATION SITE CONDITIONS",null,"GENERAL DISORDERS AND ADMINISTRATION SITE CONDITIONS",null,"MILD","N","","POSSIBLE","NOT RECOVERED/NOT RESOLVED","N","N","N","N","N","N","N","2013-09-15","2013-08-30","",2,null],[160,"CDISCPILOT01","AE","01-701-1302",17,"E28","APPLICATION SITE PRURITUS","APPLICATION SITE ITCHING",null,"APPLICATION SITE PRURITUS",null,"HLT_0317",null,"HLGT_0338",null,"GENERAL DISORDERS AND ADMINISTRATION SITE CONDITIONS",null,"GENERAL DISORDERS AND ADMINISTRATION SITE CONDITIONS",null,"MILD","N","","PROBABLE","NOT RECOVERED/NOT RESOLVED","N","N","N","N","N","N","N","2013-10-22","2013-10-15","",48,null],[161,"CDISCPILOT01","AE","01-701-1302",12,"E19","CONTUSION","BRUISE",null,"CONTUSION",null,"HLT_0713",null,"HLGT_0381",null,"INJURY, POISONING AND PROCEDURAL COMPLICATIONS",null,"INJURY, POISONING AND PROCEDURAL COMPLICATIONS",null,"MILD","N","","REMOTE","NOT RECOVERED/NOT RESOLVED","N","N","N","N","N","N","N","2013-09-15","2013-09-05","2013-10-08",8,41],[162,"CDISCPILOT01","AE","01-701-1302",15,"E19","CONTUSION","BRUISE",null,"CONTUSION",null,"HLT_0713",null,"HLGT_0381",null,"INJURY, POISONING AND PROCEDURAL COMPLICATIONS",null,"INJURY, POISONING AND PROCEDURAL COMPLICATIONS",null,"MILD","N","","REMOTE","RECOVERED/RESOLVED","N","N","N","N","N","N","N","2013-10-22","2013-09-05","2013-10-08",8,41],[163,"CDISCPILOT01","AE","01-701-1302",9,"E17","DIZZINESS","DIZZY",null,"DIZZINESS",null,"HLT_0619",null,"HLGT_0751",null,"NERVOUS SYSTEM DISORDERS",null,"NERVOUS SYSTEM DISORDERS",null,"MODERATE","N","","REMOTE","RECOVERED/RESOLVED","N","N","N","N","N","N","N","2013-09-15","2013-09-02","2013-09-03",5,6],[164,"CDISCPILOT01","AE","01-701-1302",11,"E20","DIZZINESS","LIGHTHEADEDNESS",null,"DIZZINESS",null,"HLT_0619",null,"HLGT_0751",null,"NERVOUS SYSTEM DISORDERS",null,"NERVOUS SYSTEM DISORDERS",null,"MILD","N","","POSSIBLE","NOT RECOVERED/NOT RESOLVED","N","N","N","N","N","N","N","2013-09-15","2013-09-04","",7,null],[165,"CDISCPILOT01","AE","01-701-1302",14,"E25","EPISTAXIS","NOSE BLEED",null,"EPISTAXIS",null,"HLT_0386",null,"HLGT_0577",null,"RESPIRATORY, THORACIC AND MEDIASTINAL DISORDERS",null,"RESPIRATORY, THORACIC AND MEDIASTINAL DISORDERS",null,"MILD","N","","REMOTE","NOT RECOVERED/NOT RESOLVED","N","N","N","N","N","N","N","2013-10-08","2013-09-30","",33,null],[166,"CDISCPILOT01","AE","01-701-1302",21,"E31","FEELING ABNORMAL","FOGGY FEELING IN HEAD",null,"FEELING ABNORMAL",null,"HLT_0524",null,"HLGT_0749",null,"GENERAL DISORDERS AND ADMINISTRATION SITE CONDITIONS",null,"GENERAL DISORDERS AND ADMINISTRATION SITE CONDITIONS",null,"MILD","N","","POSSIBLE","NOT RECOVERED/NOT RESOLVED","N","N","N","N","N","N","N","2013-11-05","2013-10-24","",57,null],[167,"CDISCPILOT01","AE","01-701-1302",13,"E23","HEADACHE","HEADACHE",null,"HEADACHE",null,"HLT_0064",null,"HLGT_0344",null,"NERVOUS SYSTEM DISORDERS",null,"NERVOUS SYSTEM DISORDERS",null,"MILD","N","","NONE","NOT RECOVERED/NOT RESOLVED","N","N","N","N","N","N","N","2013-09-15","2013-09-15","",18,null],[168,"CDISCPILOT01","AE","01-701-1302",2,"E24","HYPERHIDROSIS","PERSPIRATION EXCESSIVE",null,"HYPERHIDROSIS",null,"HLT_0587",null,"HLGT_0005",null,"SKIN AND SUBCUTANEOUS TISSUE DISORDERS",null,"SKIN AND SUBCUTANEOUS TISSUE DISORDERS",null,"MILD","N","","POSSIBLE","NOT RECOVERED/NOT RESOLVED","N","N","N","N","N","N","N","2013-09-15","2013-08-30","",2,null],[169,"CDISCPILOT01","AE","01-701-1302",23,"E33","LIBIDO DECREASED","LIBIDO DECREASED",null,"LIBIDO DECREASED",null,"HLT_0338",null,"HLGT_0496",null,"PSYCHIATRIC DISORDERS",null,"PSYCHIATRIC DISORDERS",null,"MILD","N","","POSSIBLE","NOT RECOVERED/NOT RESOLVED","N","N","N","N","N","N","N","2013-11-05","2013-10-24","",57,null],[170,"CDISCPILOT01","AE","01-701-1302",22,"E32","LISTLESS","LISTLESSNESS",null,"LISTLESS",null,"HLT_0657",null,"HLGT_0124",null,"PSYCHIATRIC DISORDERS",null,"PSYCHIATRIC DISORDERS",null,"MILD","N","","POSSIBLE","NOT RECOVERED/NOT RESOLVED","N","N","N","N","N","N","N","2013-11-05","2013-10-24","",57,null],[171,"CDISCPILOT01","AE","01-701-1302",8,"E16","MALAISE","MALAISE",null,"MALAISE",null,"HLT_0456",null,"HLGT_0178",null,"GENERAL DISORDERS AND ADMINISTRATION SITE CONDITIONS",null,"GENERAL DISORDERS AND ADMINISTRATION SITE CONDITIONS",null,"MILD","N","","REMOTE","NOT RECOVERED/NOT RESOLVED","N","N","N","N","N","N","N","2013-09-15","2013-09-02","",5,null],[172,"CDISCPILOT01","AE","01-701-1302",18,"E16","MALAISE","MALAISE",null,"MALAISE",null,"HLT_0456",null,"HLGT_0178",null,"GENERAL DISORDERS AND ADMINISTRATION SITE CONDITIONS",null,"GENERAL DISORDERS AND ADMINISTRATION SITE CONDITIONS",null,"MODERATE","N","","REMOTE","NOT RECOVERED/NOT RESOLVED","N","N","N","N","N","N","N","2013-11-05","2013-09-02","",5,null],[173,"CDISCPILOT01","AE","01-701-1302",10,"E18","MYALGIA","MYALGIA",null,"MYALGIA",null,"HLT_0700",null,"HLGT_0121",null,"MUSCULOSKELETAL AND CONNECTIVE TISSUE DISORDERS",null,"MUSCULOSKELETAL AND CONNECTIVE TISSUE DISORDERS",null,"MILD","N","","POSSIBLE","NOT RECOVERED/NOT RESOLVED","N","N","N","N","N","N","N","2013-09-15","2013-09-02","",5,null],[174,"CDISCPILOT01","AE","01-701-1302",5,"E13","NASAL CONGESTION","NASAL CONGESTION",null,"NASAL CONGESTION",null,"HLT_0118",null,"HLGT_0549",null,"RESPIRATORY, THORACIC AND MEDIASTINAL DISORDERS",null,"RESPIRATORY, THORACIC AND MEDIASTINAL DISORDERS",null,"MILD","N","","NONE","NOT RECOVERED/NOT RESOLVED","N","N","N","N","N","N","N","2013-09-15","2013-09-01","",4,null],[175,"CDISCPILOT01","AE","01-701-1302",4,"E22","PAIN","STINGING",null,"PAIN",null,"HLT_0314",null,"HLGT_0478",null,"GENERAL DISORDERS AND ADMINISTRATION SITE CONDITIONS",null,"GENERAL DISORDERS AND ADMINISTRATION SITE CONDITIONS",null,"MILD","N","","POSSIBLE","NOT RECOVERED/NOT RESOLVED","N","N","N","N","N","N","N","2013-09-15","2013-08-31","",3,null],[176,"CDISCPILOT01","AE","01-701-1302",6,"E14","PHARYNGOLARYNGEAL PAIN","SORE THROAT",null,"PHARYNGOLARYNGEAL PAIN",null,"HLT_0130",null,"HLGT_0402",null,"RESPIRATORY, THORACIC AND MEDIASTINAL DISORDERS",null,"RESPIRATORY, THORACIC AND MEDIASTINAL DISORDERS",null,"MILD","N","","NONE","NOT RECOVERED/NOT RESOLVED","N","N","N","N","N","N","N","2013-09-15","2013-09-02","",5,null],[177,"CDISCPILOT01","AE","01-701-1302",7,"E15","PRODUCTIVE COUGH","PRODUCTIVE COUGH",null,"PRODUCTIVE COUGH",null,"HLT_0545",null,"HLGT_0681",null,"RESPIRATORY, THORACIC AND MEDIASTINAL DISORDERS",null,"RESPIRATORY, THORACIC AND MEDIASTINAL DISORDERS",null,"MILD","N","","NONE","NOT RECOVERED/NOT RESOLVED","N","N","N","N","N","N","N","2013-09-15","2013-09-02","",5,null],[178,"CDISCPILOT01","AE","01-701-1302",19,"E29","RESPIRATORY TRACT CONGESTION","RESPIRATORY TRACT CONGESTION",null,"RESPIRATORY TRACT CONGESTION",null,"HLT_0330",null,"HLGT_0424",null,"RESPIRATORY, THORACIC AND MEDIASTINAL DISORDERS",null,"RESPIRATORY, THORACIC AND MEDIASTINAL DISORDERS",null,"MILD","N","","NONE","NOT RECOVERED/NOT RESOLVED","N","N","N","N","N","N","N","2013-11-05","2013-10-23","",56,null],[179,"CDISCPILOT01","AE","01-701-1302",20,"E30","RHINITIS","CORYZA",null,"RHINITIS",null,"HLT_0239",null,"HLGT_0322",null,"INFECTIONS AND INFESTATIONS",null,"INFECTIONS AND INFESTATIONS",null,"MILD","N","","NONE","NOT RECOVERED/NOT RESOLVED","N","N","N","N","N","N","N","2013-11-05","2013-10-23","",56,null],[180,"CDISCPILOT01","AE","01-701-1302",3,"E26","STOMACH DISCOMFORT","STOMACH UPSET",null,"STOMACH DISCOMFORT",null,"HLT_0065",null,"HLGT_0183",null,"GASTROINTESTINAL DISORDERS",null,"GASTROINTESTINAL DISORDERS",null,"MILD","N","","POSSIBLE","NOT RECOVERED/NOT RESOLVED","N","N","N","N","N","N","N","2013-09-15","2013-08-30","",2,null],[181,"CDISCPILOT01","AE","01-701-1317",3,"E13","APPLICATION SITE ERYTHEMA","APPLICATION SITE REDNESS",null,"APPLICATION SITE ERYTHEMA",null,"HLT_0617",null,"HLGT_0152",null,"GENERAL DISORDERS AND ADMINISTRATION SITE CONDITIONS",null,"GENERAL DISORDERS AND ADMINISTRATION SITE CONDITIONS",null,"MILD","N","","POSSIBLE","NOT RECOVERED/NOT RESOLVED","N","N","N","N","N","N","N","2014-07-03","2014-06-23","",33,null],[182,"CDISCPILOT01","AE","01-701-1317",4,"E14","APPLICATION SITE PRURITUS","APPLICATION SITE ITCHING",null,"APPLICATION SITE PRURITUS",null,"HLT_0317",null,"HLGT_0338",null,"GENERAL DISORDERS AND ADMINISTRATION SITE CONDITIONS",null,"GENERAL DISORDERS AND ADMINISTRATION SITE CONDITIONS",null,"MILD","N","","POSSIBLE","NOT RECOVERED/NOT RESOLVED","N","N","N","N","N","N","N","2014-07-03","2014-06-23","",33,null],[183,"CDISCPILOT01","AE","01-701-1317",5,"E15","APPLICATION SITE URTICARIA","APPLICATION SITE URTICARIA",null,"APPLICATION SITE URTICARIA",null,"HLT_0196",null,"HLGT_0233",null,"GENERAL DISORDERS AND ADMINISTRATION SITE CONDITIONS",null,"GENERAL DISORDERS AND ADMINISTRATION SITE CONDITIONS",null,"MILD","N","","POSSIBLE","NOT RECOVERED/NOT RESOLVED","N","N","N","N","N","N","N","2014-07-03","2014-06-23","",33,null],[184,"CDISCPILOT01","AE","01-701-1317",2,"E12","CYST","CYST",null,"CYST",null,"HLT_0763",null,"HLGT_0341",null,"GENERAL DISORDERS AND ADMINISTRATION SITE CONDITIONS",null,"GENERAL DISORDERS AND ADMINISTRATION SITE CONDITIONS",null,"MILD","N","","NONE","NOT RECOVERED/NOT RESOLVED","N","N","N","N","N","N","N","2014-05-20","2014-05-13","",-9,null],[185,"CDISCPILOT01","AE","01-701-1317",6,"E16","DEPRESSED MOOD","DEPRESSED MOOD",null,"DEPRESSED MOOD",null,"HLT_0784",null,"HLGT_0122",null,"PSYCHIATRIC DISORDERS",null,"PSYCHIATRIC DISORDERS",null,"MILD","N","","POSSIBLE","NOT RECOVERED/NOT RESOLVED","N","N","N","N","N","N","N","2014-07-22","2014-07-04","",44,null],[186,"CDISCPILOT01","AE","01-701-1317",7,"E16","DEPRESSED MOOD","DEPRESSED MOOD",null,"DEPRESSED MOOD",null,"HLT_0784",null,"HLGT_0122",null,"PSYCHIATRIC DISORDERS",null,"PSYCHIATRIC DISORDERS",null,"MODERATE","N","","POSSIBLE","NOT RECOVERED/NOT RESOLVED","N","N","N","N","N","N","N","2014-10-09","2014-07-04","",44,null],[187,"CDISCPILOT01","AE","01-701-1317",9,"E18","DYSPHONIA","HOARSENESS",null,"DYSPHONIA",null,"HLT_0073",null,"HLGT_0274",null,"RESPIRATORY, THORACIC AND MEDIASTINAL DISORDERS",null,"RESPIRATORY, THORACIC AND MEDIASTINAL DISORDERS",null,"MILD","N","","REMOTE","NOT RECOVERED/NOT RESOLVED","N","N","N","N","N","N","N","2014-11-06","2014-11-03","",166,null],[188,"CDISCPILOT01","AE","01-701-1317",8,"E17","FATIGUE","TIREDNESS",null,"FATIGUE",null,"HLT_0043",null,"HLGT_0181",null,"GENERAL DISORDERS AND ADMINISTRATION SITE CONDITIONS",null,"GENERAL DISORDERS AND ADMINISTRATION SITE CONDITIONS",null,"MILD","N","","REMOTE","NOT RECOVERED/NOT RESOLVED","N","N","N","N","N","N","N","2014-10-09","2014-09-12","",114,null],[189,"CDISCPILOT01","AE","01-701-1317",1,"E11","ONYCHOMYCOSIS","ONYCHOMYCOSIS",null,"ONYCHOMYCOSIS",null,"HLT_0275",null,"HLGT_0243",null,"INFECTIONS AND INFESTATIONS",null,"INFECTIONS AND INFESTATIONS",null,"MILD","N","","NONE","NOT RECOVERED/NOT RESOLVED","N","N","N","N","N","N","N","2014-05-20","2014-05-13","",-9,null],[190,"CDISCPILOT01","AE","01-701-1324",1,"E04","APPLICATION SITE ERYTHEMA","APPLICATION SITE ERYTHEMA",null,"APPLICATION SITE ERYTHEMA",null,"HLT_0617",null,"HLGT_0152",null,"GENERAL DISORDERS AND ADMINISTRATION SITE CONDITIONS",null,"GENERAL DISORDERS AND ADMINISTRATION SITE CONDITIONS",null,"MILD","N","","PROBABLE","NOT RECOVERED/NOT RESOLVED","N","N","N","N","N","N","N","2012-10-30","2012-10-22","",21,null],[191,"CDISCPILOT01","AE","01-701-1324",2,"E06","APPLICATION SITE PRURITUS","APPLICATION SITE ITCHING",null,"APPLICATION SITE PRURITUS",null,"HLT_0317",null,"HLGT_0338",null,"GENERAL DISORDERS AND ADMINISTRATION SITE CONDITIONS",null,"GENERAL DISORDERS AND ADMINISTRATION SITE CONDITIONS",null,"MILD","N","","PROBABLE","NOT RECOVERED/NOT RESOLVED","N","N","N","N","N","N","N","2012-12-25","2012-12-02","",62,null],[192,"CDISCPILOT01","AE","01-701-1324",3,"E05","APPLICATION SITE VESICLES","APPLICATION SITE BLISTER",null,"APPLICATION SITE VESICLES",null,"HLT_0180",null,"HLGT_0576",null,"GENERAL DISORDERS AND ADMINISTRATION SITE CONDITIONS",null,"GENERAL DISORDERS AND ADMINISTRATION SITE CONDITIONS",null,"MILD","N","","PROBABLE","NOT RECOVERED/NOT RESOLVED","N","N","N","N","N","N","N","2012-12-25","2012-12-25","2013-01-16",85,107],[193,"CDISCPILOT01","AE","01-701-1324",4,"E05","APPLICATION SITE VESICLES","APPLICATION SITE BLISTER",null,"APPLICATION SITE VESICLES",null,"HLT_0180",null,"HLGT_0576",null,"GENERAL DISORDERS AND ADMINISTRATION SITE CONDITIONS",null,"GENERAL DISORDERS AND ADMINISTRATION SITE CONDITIONS",null,"MILD","N","","PROBABLE","RECOVERED/RESOLVED","N","N","N","N","N","N","N","2013-01-22","2012-12-25","2013-01-16",85,107],[194,"CDISCPILOT01","AE","01-701-1341",2,"E10","APPLICATION SITE ERYTHEMA","APPLICATION SITE REDNESS",null,"APPLICATION SITE ERYTHEMA",null,"HLT_0617",null,"HLGT_0152",null,"GENERAL DISORDERS AND ADMINISTRATION SITE CONDITIONS",null,"GENERAL DISORDERS AND ADMINISTRATION SITE CONDITIONS",null,"MODERATE","N","","PROBABLE","NOT RECOVERED/NOT RESOLVED","N","N","N","N","N","N","N","2013-02-07","2013-01-19","",15,null],[195,"CDISCPILOT01","AE","01-701-1341",4,"E12","APPLICATION SITE ERYTHEMA","APPLICATION SITE REDNESS",null,"APPLICATION SITE ERYTHEMA",null,"HLT_0617",null,"HLGT_0152",null,"GENERAL DISORDERS AND ADMINISTRATION SITE CONDITIONS",null,"GENERAL DISORDERS AND ADMINISTRATION SITE CONDITIONS",null,"MODERATE","N","","PROBABLE","NOT RECOVERED/NOT RESOLVED","N","N","N","N","N","N","N","2013-02-07","2013-01-26","",22,null],[196,"CDISCPILOT01","AE","01-701-1341",5,"E13","APPLICATION SITE IRRITATION","APPLICATION SITE BURNING",null,"APPLICATION SITE IRRITATION",null,"HLT_0061",null,"HLGT_0346",null,"GENERAL DISORDERS AND ADMINISTRATION SITE CONDITIONS",null,"GENERAL DISORDERS AND ADMINISTRATION SITE CONDITIONS",null,"MODERATE","N","","PROBABLE","RECOVERED/RESOLVED","N","N","N","N","N","N","N","2013-02-07","2013-01-26","2013-01-30",22,26],[197,"CDISCPILOT01","AE","01-701-1341",1,"E09","APPLICATION SITE PRURITUS","APPLICATION SITE ITCHING",null,"APPLICATION SITE PRURITUS",null,"HLT_0317",null,"HLGT_0338",null,"GENERAL DISORDERS AND ADMINISTRATION SITE CONDITIONS",null,"GENERAL DISORDERS AND ADMINISTRATION SITE CONDITIONS",null,"MODERATE","N","","PROBABLE","NOT RECOVERED/NOT RESOLVED","N","N","N","N","N","N","N","2013-02-07","2013-01-19","",15,null],[198,"CDISCPILOT01","AE","01-701-1341",3,"E11","APPLICATION SITE PRURITUS","APPLICATION SITE ITCHING",null,"APPLICATION SITE PRURITUS",null,"HLT_0317",null,"HLGT_0338",null,"GENERAL DISORDERS AND ADMINISTRATION SITE CONDITIONS",null,"GENERAL DISORDERS AND ADMINISTRATION SITE CONDITIONS",null,"MODERATE","N","","PROBABLE","RECOVERED/RESOLVED","N","N","N","N","N","N","N","2013-02-07","2013-01-26","2013-01-30",22,26],[199,"CDISCPILOT01","AE","01-701-1360",1,"E08","APPLICATION SITE ERYTHEMA","APPLICATION SITE ERYTHEMA",null,"APPLICATION SITE ERYTHEMA",null,"HLT_0617",null,"HLGT_0152",null,"GENERAL DISORDERS AND ADMINISTRATION SITE CONDITIONS",null,"GENERAL DISORDERS AND ADMINISTRATION SITE CONDITIONS",null,"MODERATE","N","","PROBABLE","NOT RECOVERED/NOT RESOLVED","N","N","N","N","N","N","N","2013-08-14","2013-08-02","",3,null],[200,"CDISCPILOT01","AE","01-701-1360",2,"E09","APPLICATION SITE PRURITUS","APPLICATION SITE ITCHING",null,"APPLICATION SITE PRURITUS",null,"HLT_0317",null,"HLGT_0338",null,"GENERAL DISORDERS AND ADMINISTRATION SITE CONDITIONS",null,"GENERAL DISORDERS AND ADMINISTRATION SITE CONDITIONS",null,"MODERATE","N","","PROBABLE","NOT RECOVERED/NOT RESOLVED","N","N","N","N","N","N","N","2013-08-14","2013-08-02","",3,null],[201,"CDISCPILOT01","AE","01-701-1360",3,"E10","APPLICATION SITE VESICLES","APPLICATION SITE BLISTER",null,"APPLICATION SITE VESICLES",null,"HLT_0180",null,"HLGT_0576",null,"GENERAL DISORDERS AND ADMINISTRATION SITE CONDITIONS",null,"GENERAL DISORDERS AND ADMINISTRATION SITE CONDITIONS",null,"MODERATE","N","","PROBABLE","NOT RECOVERED/NOT RESOLVED","N","N","N","N","N","N","N","2013-08-14","2013-08-05","",6,null],[202,"CDISCPILOT01","AE","01-701-1363",3,"E11","APPLICATION SITE PRURITUS","APPLICATION SITE ITCHING",null,"APPLICATION SITE PRURITUS",null,"HLT_0317",null,"HLGT_0338",null,"GENERAL DISORDERS AND ADMINISTRATION SITE CONDITIONS",null,"GENERAL DISORDERS AND ADMINISTRATION SITE CONDITIONS",null,"MILD","N","","PROBABLE","NOT RECOVERED/NOT RESOLVED","N","N","N","N","N","N","N","2013-07-24","2013-07-16","",48,null],[203,"CDISCPILOT01","AE","01-701-1363",5,"E13","BACK PAIN","BACKACHE",null,"BACK PAIN",null,"HLT_0115",null,"HLGT_0508",null,"MUSCULOSKELETAL AND CONNECTIVE TISSUE DISORDERS",null,"MUSCULOSKELETAL AND CONNECTIVE TISSUE DISORDERS",null,"MILD","N","","NONE","NOT RECOVERED/NOT RESOLVED","N","N","N","N","N","N","N","2013-10-14","2013-10-13","2013-10-15",137,139],[204,"CDISCPILOT01","AE","01-701-1363",6,"E13","BACK PAIN","BACKACHE",null,"BACK PAIN",null,"HLT_0115",null,"HLGT_0508",null,"MUSCULOSKELETAL AND CONNECTIVE TISSUE DISORDERS",null,"MUSCULOSKELETAL AND CONNECTIVE TISSUE DISORDERS",null,"MILD","N","","NONE","RECOVERED/RESOLVED","N","N","N","N","N","N","N","2013-11-13","2013-10-13","2013-10-15",137,139],[205,"CDISCPILOT01","AE","01-701-1363",2,"E03","HEADACHE","HEADACHE",null,"HEADACHE",null,"HLT_0064",null,"HLGT_0344",null,"NERVOUS SYSTEM DISORDERS",null,"NERVOUS SYSTEM DISORDERS",null,"MODERATE","N","","POSSIBLE","NOT RECOVERED/NOT RESOLVED","N","N","N","N","N","N","N","2013-07-24","1986","",null,null],[206,"CDISCPILOT01","AE","01-701-1363",4,"E03","HEADACHE","HEADACHE",null,"HEADACHE",null,"HLT_0064",null,"HLGT_0344",null,"NERVOUS SYSTEM DISORDERS",null,"NERVOUS SYSTEM DISORDERS",null,"MILD","N","","POSSIBLE","NOT RECOVERED/NOT RESOLVED","N","N","N","N","N","N","N","2013-10-14","1986","",null,null],[207,"CDISCPILOT01","AE","01-701-1363",1,"E09","NAUSEA","NAUSEA",null,"NAUSEA",null,"HLT_0742",null,"HLGT_0326",null,"GASTROINTESTINAL DISORDERS",null,"GASTROINTESTINAL DISORDERS",null,"MILD","N","","REMOTE","RECOVERED/RESOLVED","N","N","N","N","N","N","N","2013-06-25","2013-06-14","2013-06-15",16,17],[208,"CDISCPILOT01","AE","01-701-1383",3,"E06","APPLICATION SITE ERYTHEMA","APPLICATION SITE ERYTHEMA",null,"APPLICATION SITE ERYTHEMA",null,"HLT_0617",null,"HLGT_0152",null,"GENERAL DISORDERS AND ADMINISTRATION SITE CONDITIONS",null,"GENERAL DISORDERS AND ADMINISTRATION SITE CONDITIONS",null,"MILD","N","","POSSIBLE","RECOVERED/RESOLVED","N","N","N","N","N","N","N","2013-04-02","2013-03-23","2013-03-26",48,51],[209,"CDISCPILOT01","AE","01-701-1383",5,"E08","APPLICATION SITE ERYTHEMA","APPLICATION SITE ERYTHEMA",null,"APPLICATION SITE ERYTHEMA",null,"HLT_0617",null,"HLGT_0152",null,"GENERAL DISORDERS AND ADMINISTRATION SITE CONDITIONS",null,"GENERAL DISORDERS AND ADMINISTRATION SITE CONDITIONS",null,"MILD","N","","POSSIBLE","NOT RECOVERED/NOT RESOLVED","N","N","N","N","N","N","N","2013-04-30","2013-04-12","",68,null],[210,"CDISCPILOT01","AE","01-701-1383",6,"E09","APPLICATION SITE IRRITATION","APPLICATION SITE BURNING",null,"APPLICATION SITE IRRITATION",null,"HLT_0061",null,"HLGT_0346",null,"GENERAL DISORDERS AND ADMINISTRATION SITE CONDITIONS",null,"GENERAL DISORDERS AND ADMINISTRATION SITE CONDITIONS",null,"MILD","N","","POSSIBLE","NOT RECOVERED/NOT RESOLVED","N","N","N","N","N","N","N","2013-04-30","2013-04-12","",68,null],[211,"CDISCPILOT01","AE","01-701-1383",8,"E09","APPLICATION SITE IRRITATION","APPLICATION SITE BURNING",null,"APPLICATION SITE IRRITATION",null,"HLT_0061",null,"HLGT_0346",null,"GENERAL DISORDERS AND ADMINISTRATION SITE CONDITIONS",null,"GENERAL DISORDERS AND ADMINISTRATION SITE CONDITIONS",null,"MODERATE","N","","POSSIBLE","NOT RECOVERED/NOT RESOLVED","N","N","N","N","N","N","N","2013-05-30","2013-04-12","",68,null],[212,"CDISCPILOT01","AE","01-701-1383",2,"E05","APPLICATION SITE PAIN","APPLICATION SITE PAIN",null,"APPLICATION SITE PAIN",null,"HLT_0342",null,"HLGT_0085",null,"GENERAL DISORDERS AND ADMINISTRATION SITE CONDITIONS",null,"GENERAL DISORDERS AND ADMINISTRATION SITE CONDITIONS",null,"MILD","N","","PROBABLE","RECOVERED/RESOLVED","N","N","N","N","N","N","N","2013-02-19","2013-02-07","2013-02-07",4,4],[213,"CDISCPILOT01","AE","01-701-1383",1,"E04","APPLICATION SITE PRURITUS","APPLICATION SITE ITCHING",null,"APPLICATION SITE PRURITUS",null,"HLT_0317",null,"HLGT_0338",null,"GENERAL DISORDERS AND ADMINISTRATION SITE CONDITIONS",null,"GENERAL DISORDERS AND ADMINISTRATION SITE CONDITIONS",null,"MILD","N","","PROBABLE","RECOVERED/RESOLVED","N","N","N","N","N","N","N","2013-02-19","2013-02-07","2013-02-07",4,4],[214,"CDISCPILOT01","AE","01-701-1383",4,"E07","APPLICATION SITE PRURITUS","APPLICATION SITE ITCHING",null,"APPLICATION SITE PRURITUS",null,"HLT_0317",null,"HLGT_0338",null,"GENERAL DISORDERS AND ADMINISTRATION SITE CONDITIONS",null,"GENERAL DISORDERS AND ADMINISTRATION SITE CONDITIONS",null,"MILD","N","","POSSIBLE","NOT RECOVERED/NOT RESOLVED","N","N","N","N","N","N","N","2013-04-02","2013-03-23","",48,null],[215,"CDISCPILOT01","AE","01-701-1383",7,"E07","APPLICATION SITE PRURITUS","APPLICATION SITE ITCHING",null,"APPLICATION SITE PRURITUS",null,"HLT_0317",null,"HLGT_0338",null,"GENERAL DISORDERS AND ADMINISTRATION SITE CONDITIONS",null,"GENERAL DISORDERS AND ADMINISTRATION SITE CONDITIONS",null,"MODERATE","N","","POSSIBLE","NOT RECOVERED/NOT RESOLVED","N","N","N","N","N","N","N","2013-05-30","2013-03-23","",48,null],[216,"CDISCPILOT01","AE","01-701-1383",9,"E10","APPLICATION SITE VESICLES","APPLICATION SITE BLISTER",null,"APPLICATION SITE VESICLES",null,"HLT_0180",null,"HLGT_0576",null,"GENERAL DISORDERS AND ADMINISTRATION SITE CONDITIONS",null,"GENERAL DISORDERS AND ADMINISTRATION SITE CONDITIONS",null,"MILD","N","","POSSIBLE","RECOVERED/RESOLVED","N","N","N","N","N","N","N","2013-05-30","2013-05-07","2013-05-24",93,110],[217,"CDISCPILOT01","AE","01-701-1383",10,"E11","CHEST DISCOMFORT","CHEST PRESSURE",null,"CHEST DISCOMFORT",null,"HLT_0593",null,"HLGT_0441",null,"GENERAL DISORDERS AND ADMINISTRATION SITE CONDITIONS",null,"GENERAL DISORDERS AND ADMINISTRATION SITE CONDITIONS",null,"MILD","N","","NONE","RECOVERED/RESOLVED","N","N","N","N","N","N","N","2013-06-25","2013-06-24","2013-06-24",141,141],[218,"CDISCPILOT01","AE","01-701-1383",12,"E13","COUGH","COUGH",null,"COUGH",null,"HLT_0701",null,"HLGT_0280",null,"RESPIRATORY, THORACIC AND MEDIASTINAL DISORDERS",null,"RESPIRATORY, THORACIC AND MEDIASTINAL DISORDERS",null,"MODERATE","N","","NONE","RECOVERED/RESOLVED","N","N","N","N","N","N","N","2013-07-30","2013-07-17","2013-07-26",164,173],[219,"CDISCPILOT01","AE","01-701-1383",11,"E12","HEADACHE","FULLNESS HEAD",null,"HEADACHE",null,"HLT_0064",null,"HLGT_0344",null,"NERVOUS SYSTEM DISORDERS",null,"NERVOUS SYSTEM DISORDERS",null,"MILD","N","","NONE","RECOVERED/RESOLVED","N","N","N","N","N","N","N","2013-06-25","2013-06-24","2013-06-24",141,141],[220,"CDISCPILOT01","AE","01-701-1387",1,"E08","DIARRHOEA","DIARRHEA",null,"DIARRHOEA",null,"HLT_0148",null,"HLGT_0588",null,"GASTROINTESTINAL DISORDERS",null,"GASTROINTESTINAL DISORDERS",null,"MILD","N","","REMOTE","RECOVERED/RESOLVED","N","N","N","N","N","N","N","2014-03-25","2014-03-18","2014-03-18",7,7],[221,"CDISCPILOT01","AE","01-701-1387",2,"E09","HYPERHIDROSIS","SWEATING",null,"HYPERHIDROSIS",null,"HLT_0587",null,"HLGT_0005",null,"SKIN AND SUBCUTANEOUS TISSUE DISORDERS",null,"SKIN AND SUBCUTANEOUS TISSUE DISORDERS",null,"MILD","N","","REMOTE","RECOVERED/RESOLVED","N","N","N","N","N","N","N","2014-03-25","2014-03-18","2014-03-18",7,7],[222,"CDISCPILOT01","AE","01-701-1392",1,"E04","UPPER RESPIRATORY TRACT INFECTION","UPPER RESPIRATORY INFECTION",null,"UPPER RESPIRATORY TRACT INFECTION",null,"HLT_0520",null,"HLGT_0489",null,"INFECTIONS AND INFESTATIONS",null,"INFECTIONS AND INFESTATIONS",null,"MILD","N","","REMOTE","NOT RECOVERED/NOT RESOLVED","N","N","N","N","N","N","N","2013-03-17","2013-03-16","2013-03-21",140,145],[223,"CDISCPILOT01","AE","01-701-1392",2,"E04","UPPER RESPIRATORY TRACT INFECTION","UPPER RESPIRATORY INFECTION",null,"UPPER RESPIRATORY TRACT INFECTION",null,"HLT_0520",null,"HLGT_0489",null,"INFECTIONS AND INFESTATIONS",null,"INFECTIONS AND INFESTATIONS",null,"MILD","N","","REMOTE","RECOVERED/RESOLVED","N","N","N","N","N","N","N","2013-04-15","2013-03-16","2013-03-21",140,145],[224,"CDISCPILOT01","AE","01-701-1415",6,"E12","DIARRHOEA","DIARRHEA",null,"DIARRHOEA",null,"HLT_0148",null,"HLGT_0588",null,"GASTROINTESTINAL DISORDERS",null,"GASTROINTESTINAL DISORDERS",null,"MILD","N","","NONE","RECOVERED/RESOLVED","N","N","N","N","N","N","N","2014-03-10","2014-03-09","2014-03-09",168,168],[225,"CDISCPILOT01","AE","01-701-1415",3,"E10","MICTURITION URGENCY","URINARY URGENCY",null,"MICTURITION URGENCY",null,"HLT_0294",null,"HLGT_0483",null,"RENAL AND URINARY DISORDERS",null,"RENAL AND URINARY DISORDERS",null,"MILD","N","","NONE","NOT RECOVERED/NOT RESOLVED","N","N","N","N","N","N","N","2013-12-21","2013-12-02","",71,null],[226,"CDISCPILOT01","AE","01-701-1415",1,"E09","UPPER RESPIRATORY TRACT INFECTION","UPPER RESPIRATORY INFECTION",null,"UPPER RESPIRATORY TRACT INFECTION",null,"HLT_0520",null,"HLGT_0489",null,"INFECTIONS AND INFESTATIONS",null,"INFECTIONS AND INFESTATIONS",null,"MILD","N","","NONE","NOT RECOVERED/NOT RESOLVED","N","N","N","N","N","N","N","2013-10-22","2013-10-21","2013-11-04",29,43],[227,"CDISCPILOT01","AE","01-701-1415",2,"E09","UPPER RESPIRATORY TRACT INFECTION","UPPER RESPIRATORY INFECTION",null,"UPPER RESPIRATORY TRACT INFECTION",null,"HLT_0520",null,"HLGT_0489",null,"INFECTIONS AND INFESTATIONS",null,"INFECTIONS AND INFESTATIONS",null,"MILD","N","","NONE","RECOVERED/RESOLVED","N","N","N","N","N","N","N","2013-11-21","2013-10-21","2013-11-04",29,43],[228,"CDISCPILOT01","AE","01-701-1415",4,"E11","UPPER RESPIRATORY TRACT INFECTION","UPPER RESPIRATORY INFECTION",null,"UPPER RESPIRATORY TRACT INFECTION",null,"HLT_0520",null,"HLGT_0489",null,"INFECTIONS AND INFESTATIONS",null,"INFECTIONS AND INFESTATIONS",null,"MILD","N","","REMOTE","NOT RECOVERED/NOT RESOLVED","N","N","N","N","N","N","N","2014-02-10","2014-01-21","2014-02-10",121,141],[229,"CDISCPILOT01","AE","01-701-1415",5,"E11","UPPER RESPIRATORY TRACT INFECTION","UPPER RESPIRATORY INFECTION",null,"UPPER RESPIRATORY TRACT INFECTION",null,"HLT_0520",null,"HLGT_0489",null,"INFECTIONS AND INFESTATIONS",null,"INFECTIONS AND INFESTATIONS",null,"MILD","N","","REMOTE","RECOVERED/RESOLVED","N","N","N","N","N","N","N","2014-03-10","2014-01-21","2014-02-10",121,141],[230,"CDISCPILOT01","AE","01-701-1442",1,"E03","APPLICATION SITE PRURITUS","APPLICATION SITE ITCHING",null,"APPLICATION SITE PRURITUS",null,"HLT_0317",null,"HLGT_0338",null,"GENERAL DISORDERS AND ADMINISTRATION SITE CONDITIONS",null,"GENERAL DISORDERS AND ADMINISTRATION SITE CONDITIONS",null,"MILD","N","","PROBABLE","NOT RECOVERED/NOT RESOLVED","N","N","N","N","N","N","N","2014-01-18","2014-01-10","",77,null],[231,"CDISCPILOT01","AE","01-701-1444",1,"E11","APPLICATION SITE ERYTHEMA","APPLICATION SITE ERYTHEMA",null,"APPLICATION SITE ERYTHEMA",null,"HLT_0617",null,"HLGT_0152",null,"GENERAL DISORDERS AND ADMINISTRATION SITE CONDITIONS",null,"GENERAL DISORDERS AND ADMINISTRATION SITE CONDITIONS",null,"MILD","N","","POSSIBLE","NOT RECOVERED/NOT RESOLVED","N","N","N","N","N","N","N","2013-01-31","2013-01-19","",15,null],[232,"CDISCPILOT01","AE","01-701-1444",4,"E11","APPLICATION SITE ERYTHEMA","APPLICATION SITE ERYTHEMA",null,"APPLICATION SITE ERYTHEMA",null,"HLT_0617",null,"HLGT_0152",null,"GENERAL DISORDERS AND ADMINISTRATION SITE CONDITIONS",null,"GENERAL DISORDERS AND ADMINISTRATION SITE CONDITIONS",null,"MODERATE","N","","POSSIBLE","NOT RECOVERED/NOT RESOLVED","N","N","N","N","N","N","N","2013-02-13","2013-01-19","",15,null],[233,"CDISCPILOT01","AE","01-701-1444",6,"E15","APPLICATION SITE IRRITATION","APPLICATION SITE BURNING",null,"APPLICATION SITE IRRITATION",null,"HLT_0061",null,"HLGT_0346",null,"GENERAL DISORDERS AND ADMINISTRATION SITE CONDITIONS",null,"GENERAL DISORDERS AND ADMINISTRATION SITE CONDITIONS",null,"MODERATE","N","","PROBABLE","NOT RECOVERED/NOT RESOLVED","N","N","N","N","N","N","N","2013-02-13","2013-02-04","",31,null],[234,"CDISCPILOT01","AE","01-701-1444",2,"E12","APPLICATION SITE PRURITUS","APPLICATION SITE ITCHING",null,"APPLICATION SITE PRURITUS",null,"HLT_0317",null,"HLGT_0338",null,"GENERAL DISORDERS AND ADMINISTRATION SITE CONDITIONS",null,"GENERAL DISORDERS AND ADMINISTRATION SITE CONDITIONS",null,"MILD","N","","PROBABLE","NOT RECOVERED/NOT RESOLVED","N","N","N","N","N","N","N","2013-01-31","2013-01-19","",15,null],[235,"CDISCPILOT01","AE","01-701-1444",5,"E12","APPLICATION SITE PRURITUS","APPLICATION SITE ITCHING",null,"APPLICATION SITE PRURITUS",null,"HLT_0317",null,"HLGT_0338",null,"GENERAL DISORDERS AND ADMINISTRATION SITE CONDITIONS",null,"GENERAL DISORDERS AND ADMINISTRATION SITE CONDITIONS",null,"MODERATE","N","","PROBABLE","NOT RECOVERED/NOT RESOLVED","N","N","N","N","N","N","N","2013-02-13","2013-01-19","",15,null],[236,"CDISCPILOT01","AE","01-701-1444",7,"E16","APPLICATION SITE VESICLES","APPLICATION SITE BLISTER",null,"APPLICATION SITE VESICLES",null,"HLT_0180",null,"HLGT_0576",null,"GENERAL DISORDERS AND ADMINISTRATION SITE CONDITIONS",null,"GENERAL DISORDERS AND ADMINISTRATION SITE CONDITIONS",null,"MODERATE","N","","PROBABLE","NOT RECOVERED/NOT RESOLVED","N","N","N","N","N","N","N","2013-02-13","2013-02-04","",31,null],[237,"CDISCPILOT01","AE","01-701-1444",8,"E14","PARAESTHESIA","TINGLING",null,"PARAESTHESIA",null,"HLT_0481",null,"HLGT_0534",null,"NERVOUS SYSTEM DISORDERS",null,"NERVOUS SYSTEM DISORDERS",null,"MILD","N","","NONE","RECOVERED/RESOLVED","N","N","N","N","N","N","N","2013-02-13","2013-02-08","2013-02-08",35,35],[238,"CDISCPILOT01","AE","01-701-1444",3,"E13","SALIVARY HYPERSECRETION","HYPERSALIVATION",null,"SALIVARY HYPERSECRETION",null,"HLT_0374",null,"HLGT_0488",null,"GASTROINTESTINAL DISORDERS",null,"GASTROINTESTINAL DISORDERS",null,"MILD","N","","POSSIBLE","NOT RECOVERED/NOT RESOLVED","N","N","N","N","N","N","N","2013-01-31","2013-01-19","",15,null],[239,"CDISCPILOT01","AE","01-702-1082",9,"E07","APPLICATION SITE IRRITATION","APPLICATION SITE IRRITATION",null,"APPLICATION SITE IRRITATION",null,"HLT_0061",null,"HLGT_0346",null,"GENERAL DISORDERS AND ADMINISTRATION SITE CONDITIONS",null,"GENERAL DISORDERS AND ADMINISTRATION SITE CONDITIONS",null,"MILD","N","","PROBABLE","RECOVERED/RESOLVED","N","N","N","N","N","N","N","2013-09-28","2013-09-09","2013-09-24",46,61],[240,"CDISCPILOT01","AE","01-702-1082",2,"E03","NEUTROPHIL COUNT INCREASED","NEUTROPHIL COUNT INCREASED",null,"NEUTROPHIL COUNT INCREASED",null,"HLT_0326",null,"HLGT_0625",null,"INVESTIGATIONS",null,"INVESTIGATIONS",null,"MILD","N","","NONE","NOT RECOVERED/NOT RESOLVED","N","N","N","N","N","N","N","2013-07-24","2013-07-07","2013-07-26",-19,1],[241,"CDISCPILOT01","AE","01-702-1082",6,"E03","NEUTROPHIL COUNT INCREASED","NEUTROPHIL COUNT INCREASED",null,"NEUTROPHIL COUNT INCREASED",null,"HLT_0326",null,"HLGT_0625",null,"INVESTIGATIONS",null,"INVESTIGATIONS",null,"MILD","N","","NONE","RECOVERED/RESOLVED","N","N","N","N","N","N","N","2013-08-08","2013-07-07","2013-07-26",-19,1],[242,"CDISCPILOT01","AE","01-702-1082",7,"E06","RECTAL HAEMORRHAGE","RECTAL BLEEDING",null,"RECTAL HAEMORRHAGE",null,"HLT_0353",null,"HLGT_0755",null,"GASTROINTESTINAL DISORDERS",null,"GASTROINTESTINAL DISORDERS",null,"MILD","N","","NONE","NOT RECOVERED/NOT RESOLVED","N","N","N","N","N","N","N","2013-09-06","2013-09-02","2013-09-06",39,43],[243,"CDISCPILOT01","AE","01-702-1082",8,"E06","RECTAL HAEMORRHAGE","RECTAL BLEEDING",null,"RECTAL HAEMORRHAGE",null,"HLT_0353",null,"HLGT_0755",null,"GASTROINTESTINAL DISORDERS",null,"GASTROINTESTINAL DISORDERS",null,"MILD","N","","NONE","RECOVERED/RESOLVED","N","N","N","N","N","N","N","2013-09-28","2013-09-02","2013-09-06",39,43],[244,"CDISCPILOT01","AE","01-702-1082",10,"E08","SKIN IRRITATION","SKIN IRRITATION",null,"SKIN IRRITATION",null,"HLT_0583",null,"HLGT_0384",null,"SKIN AND SUBCUTANEOUS TISSUE DISORDERS",null,"SKIN AND SUBCUTANEOUS TISSUE DISORDERS",null,"MODERATE","N","","PROBABLE","RECOVERED/RESOLVED","N","N","N","N","N","N","N","2013-11-17","2013-10-12","2013-10-31",79,98],[245,"CDISCPILOT01","AE","01-702-1082",3,"E04","URINE ANALYSIS ABNORMAL","URINE ANALYSIS ABNORMAL",null,"URINE ANALYSIS ABNORMAL",null,"HLT_0783",null,"HLGT_0295",null,"INVESTIGATIONS",null,"INVESTIGATIONS",null,"MILD","N","","NONE","NOT RECOVERED/NOT RESOLVED","N","N","N","N","N","N","N","2013-07-24","2013-07-07","2013-07-24",-19,-2],[246,"CDISCPILOT01","AE","01-702-1082",4,"E04","URINE ANALYSIS ABNORMAL","URINE ANALYSIS ABNORMAL",null,"URINE ANALYSIS ABNORMAL",null,"HLT_0783",null,"HLGT_0295",null,"INVESTIGATIONS",null,"INVESTIGATIONS",null,"MILD","N","","NONE","RECOVERED/RESOLVED","N","N","N","N","N","N","N","2013-07-26","2013-07-07","2013-07-24",-19,-2],[247,"CDISCPILOT01","AE","01-702-1082",1,"E02","WHITE BLOOD CELL COUNT INCREASED","WBC INCREASED",null,"WHITE BLOOD CELL COUNT INCREASED",null,"HLT_0417",null,"HLGT_0465",null,"INVESTIGATIONS",null,"INVESTIGATIONS",null,"MILD","N","","NONE","NOT RECOVERED/NOT RESOLVED","N","N","N","N","N","N","N","2013-07-24","2013-07-07","2013-07-26",-19,1],[248,"CDISCPILOT01","AE","01-702-1082",5,"E02","WHITE BLOOD CELL COUNT INCREASED","WBC INCREASED",null,"WHITE BLOOD CELL COUNT INCREASED",null,"HLT_0417",null,"HLGT_0465",null,"INVESTIGATIONS",null,"INVESTIGATIONS",null,"MILD","N","","NONE","RECOVERED/RESOLVED","N","N","N","N","N","N","N","2013-08-08","2013-07-07","2013-07-26",-19,1],[249,"CDISCPILOT01","AE","01-703-1042",1,"E04","DIARRHOEA","DIARRHEA",null,"DIARRHOEA",null,"HLT_0148",null,"HLGT_0588",null,"GASTROINTESTINAL DISORDERS",null,"GASTROINTESTINAL DISORDERS",null,"MILD","N","","POSSIBLE","RECOVERED/RESOLVED","N","N","N","N","N","N","N","2013-03-14","2013-03-04","2013-03-05",3,4],[250,"CDISCPILOT01","AE","01-703-1042",2,"E05","INSOMNIA","INSOMNIA",null,"INSOMNIA",null,"HLT_0297",null,"HLGT_0469",null,"PSYCHIATRIC DISORDERS",null,"PSYCHIATRIC DISORDERS",null,"MILD","N","","REMOTE","RECOVERED/RESOLVED","N","N","N","N","N","N","N","2013-03-14","2013-03-05","2013-03-06",4,5],[251,"CDISCPILOT01","AE","01-703-1076",5,"E09","APPLICATION SITE DERMATITIS","APPLICATION SITE RASH",null,"APPLICATION SITE DERMATITIS",null,"HLT_0343",null,"HLGT_0241",null,"GENERAL DISORDERS AND ADMINISTRATION SITE CONDITIONS",null,"GENERAL DISORDERS AND ADMINISTRATION SITE CONDITIONS",null,"MILD","N","","PROBABLE","NOT RECOVERED/NOT RESOLVED","N","N","N","N","N","N","N","2013-12-04","2013-11-23","",30,null],[252,"CDISCPILOT01","AE","01-703-1076",4,"E08","APPLICATION SITE PRURITUS","APPLICATION SITE ITCHING",null,"APPLICATION SITE PRURITUS",null,"HLT_0317",null,"HLGT_0338",null,"GENERAL DISORDERS AND ADMINISTRATION SITE CONDITIONS",null,"GENERAL DISORDERS AND ADMINISTRATION SITE CONDITIONS",null,"MILD","N","","PROBABLE","NOT RECOVERED/NOT RESOLVED","N","N","N","N","N","N","N","2013-12-04","2013-11-23","",30,null],[253,"CDISCPILOT01","AE","01-703-1076",7,"E08","APPLICATION SITE PRURITUS","APPLICATION SITE ITCHING",null,"APPLICATION SITE PRURITUS",null,"HLT_0317",null,"HLGT_0338",null,"GENERAL DISORDERS AND ADMINISTRATION SITE CONDITIONS",null,"GENERAL DISORDERS AND ADMINISTRATION SITE CONDITIONS",null,"MODERATE","N","","PROBABLE","NOT RECOVERED/NOT RESOLVED","N","N","N","N","N","N","N","2013-12-17","2013-11-23","",30,null],[254,"CDISCPILOT01","AE","01-703-1076",2,"E01","BENIGN PROSTATIC HYPERPLASIA","BENIGN PROSTATIC HYPERTROPHY",null,"BENIGN PROSTATIC HYPERPLASIA",null,"HLT_0215",null,"HLGT_0568",null,"REPRODUCTIVE SYSTEM AND BREAST DISORDERS",null,"REPRODUCTIVE SYSTEM AND BREAST DISORDERS",null,"MODERATE","N","","NONE","NOT RECOVERED/NOT RESOLVED","N","N","N","N","N","N","N","2013-11-20","2013-11-20","",27,null],[255,"CDISCPILOT01","AE","01-703-1076",1,"E02","BIOPSY PROSTATE","BIOPSY OF PROSTATE",null,"BIOPSY PROSTATE",null,"HLT_0553",null,"HLGT_0725",null,"INVESTIGATIONS",null,"INVESTIGATIONS",null,"MODERATE","N","","NONE","RECOVERED/RESOLVED","N","N","N","N","N","N","N","2013-11-20","2013-11-16","2013-11-16",23,23],[256,"CDISCPILOT01","AE","01-703-1076",3,"E05","HYPERCHOLESTEROLAEMIA","HYPERCHOLESTEROLEMIA",null,"HYPERCHOLESTEROLAEMIA",null,"HLT_0025",null,"HLGT_0703",null,"METABOLISM AND NUTRITION DISORDERS",null,"METABOLISM AND NUTRITION DISORDERS",null,"MODERATE","N","","NONE","NOT RECOVERED/NOT RESOLVED","N","N","N","N","N","N","N","2013-12-04","2007","",null,null],[257,"CDISCPILOT01","AE","01-703-1076",6,"E07","HYPERHIDROSIS","SWEATING",null,"HYPERHIDROSIS",null,"HLT_0587",null,"HLGT_0005",null,"SKIN AND SUBCUTANEOUS TISSUE DISORDERS",null,"SKIN AND SUBCUTANEOUS TISSUE DISORDERS",null,"MILD","N","","POSSIBLE","NOT RECOVERED/NOT RESOLVED","N","N","N","N","N","N","N","2013-12-04","2013-11-25","",32,null],[258,"CDISCPILOT01","AE","01-703-1086",1,"E01","APPLICATION SITE IRRITATION","APPLICATION SITE IRRITATION",null,"APPLICATION SITE IRRITATION",null,"HLT_0061",null,"HLGT_0346",null,"GENERAL DISORDERS AND ADMINISTRATION SITE CONDITIONS",null,"GENERAL DISORDERS AND ADMINISTRATION SITE CONDITIONS",null,"MILD","N","","PROBABLE","NOT RECOVERED/NOT RESOLVED","N","N","N","N","N","N","N","2012-09-16","2012-09-13","2013-01-02",12,123],[259,"CDISCPILOT01","AE","01-703-1086",2,"E01","APPLICATION SITE IRRITATION","APPLICATION SITE IRRITATION",null,"APPLICATION SITE IRRITATION",null,"HLT_0061",null,"HLGT_0346",null,"GENERAL DISORDERS AND ADMINISTRATION SITE CONDITIONS",null,"GENERAL DISORDERS AND ADMINISTRATION SITE CONDITIONS",null,"MODERATE","N","","PROBABLE","NOT RECOVERED/NOT RESOLVED","N","N","N","N","N","N","N","2012-09-30","2012-09-13","2013-01-02",12,123],[260,"CDISCPILOT01","AE","01-703-1086",3,"E01","APPLICATION SITE IRRITATION","APPLICATION SITE IRRITATION",null,"APPLICATION SITE IRRITATION",null,"HLT_0061",null,"HLGT_0346",null,"GENERAL DISORDERS AND ADMINISTRATION SITE CONDITIONS",null,"GENERAL DISORDERS AND ADMINISTRATION SITE CONDITIONS",null,"SEVERE","N","","PROBABLE","NOT RECOVERED/NOT RESOLVED","N","N","N","N","N","N","N","2012-10-13","2012-09-13","2013-01-02",12,123],[261,"CDISCPILOT01","AE","01-703-1086",6,"E01","APPLICATION SITE IRRITATION","APPLICATION SITE IRRITATION",null,"APPLICATION SITE IRRITATION",null,"HLT_0061",null,"HLGT_0346",null,"GENERAL DISORDERS AND ADMINISTRATION SITE CONDITIONS",null,"GENERAL DISORDERS AND ADMINISTRATION SITE CONDITIONS",null,"MILD","N","","PROBABLE","RECOVERED/RESOLVED","N","N","N","N","N","N","N","2013-03-26","2012-09-13","2013-01-02",12,123],[262,"CDISCPILOT01","AE","01-703-1086",4,"E02","CHILLS","CHILLS",null,"CHILLS",null,"HLT_0586",null,"HLGT_0161",null,"GENERAL DISORDERS AND ADMINISTRATION SITE CONDITIONS",null,"GENERAL DISORDERS AND ADMINISTRATION SITE CONDITIONS",null,"MILD","N","","POSSIBLE","NOT RECOVERED/NOT RESOLVED","N","N","N","N","N","N","N","2012-10-13","2012-10-09","2012-10-15",38,44],[263,"CDISCPILOT01","AE","01-703-1086",5,"E02","CHILLS","CHILLS",null,"CHILLS",null,"HLT_0586",null,"HLGT_0161",null,"GENERAL DISORDERS AND ADMINISTRATION SITE CONDITIONS",null,"GENERAL DISORDERS AND ADMINISTRATION SITE CONDITIONS",null,"MILD","N","","POSSIBLE","RECOVERED/RESOLVED","N","N","N","N","N","N","N","2012-10-27","2012-10-09","2012-10-15",38,44],[264,"CDISCPILOT01","AE","01-703-1100",1,"E04","APPLICATION SITE IRRITATION","APPLICATION SITE IRRITATION",null,"APPLICATION SITE IRRITATION",null,"HLT_0061",null,"HLGT_0346",null,"GENERAL DISORDERS AND ADMINISTRATION SITE CONDITIONS",null,"GENERAL DISORDERS AND ADMINISTRATION SITE CONDITIONS",null,"MODERATE","N","","PROBABLE","NOT RECOVERED/NOT RESOLVED","N","N","N","N","N","N","N","2013-04-12","2013-04-05","2013-04-16",24,35],[265,"CDISCPILOT01","AE","01-703-1100",2,"E04","APPLICATION SITE IRRITATION","APPLICATION SITE IRRITATION",null,"APPLICATION SITE IRRITATION",null,"HLT_0061",null,"HLGT_0346",null,"GENERAL DISORDERS AND ADMINISTRATION SITE CONDITIONS",null,"GENERAL DISORDERS AND ADMINISTRATION SITE CONDITIONS",null,"MILD","N","","PROBABLE","NOT RECOVERED/NOT RESOLVED","N","N","N","N","N","N","N","2013-04-14","2013-04-05","2013-04-16",24,35],[266,"CDISCPILOT01","AE","01-703-1100",3,"E04","APPLICATION SITE IRRITATION","APPLICATION SITE IRRITATION",null,"APPLICATION SITE IRRITATION",null,"HLT_0061",null,"HLGT_0346",null,"GENERAL DISORDERS AND ADMINISTRATION SITE CONDITIONS",null,"GENERAL DISORDERS AND ADMINISTRATION SITE CONDITIONS",null,"MILD","N","","PROBABLE","RECOVERED/RESOLVED","N","N","N","N","N","N","N","2013-04-24","2013-04-05","2013-04-16",24,35],[267,"CDISCPILOT01","AE","01-703-1100",4,"E06","CATARACT OPERATION","CATARACT EXTRACTION",null,"CATARACT OPERATION",null,"HLT_0432",null,"HLGT_0058",null,"SURGICAL AND MEDICAL PROCEDURES",null,"SURGICAL AND MEDICAL PROCEDURES",null,"MODERATE","N","","NONE","RECOVERED/RESOLVED","N","N","N","N","N","N","N","2013-05-08","2013-04-25","2013-04-25",44,44],[268,"CDISCPILOT01","AE","01-703-1100",6,"E07","OEDEMA PERIPHERAL","LEG EDEMA",null,"OEDEMA PERIPHERAL",null,"HLT_0661",null,"HLGT_0137",null,"GENERAL DISORDERS AND ADMINISTRATION SITE CONDITIONS",null,"GENERAL DISORDERS AND ADMINISTRATION SITE CONDITIONS",null,"MODERATE","N","","REMOTE","NOT RECOVERED/NOT RESOLVED","N","N","N","N","N","N","N","2013-07-31","2013-02-28","2013-09-14",-13,186],[269,"CDISCPILOT01","AE","01-703-1100",8,"E07","OEDEMA PERIPHERAL","LEG EDEMA",null,"OEDEMA PERIPHERAL",null,"HLT_0661",null,"HLGT_0137",null,"GENERAL DISORDERS AND ADMINISTRATION SITE CONDITIONS",null,"GENERAL DISORDERS AND ADMINISTRATION SITE CONDITIONS",null,"MODERATE","N","","REMOTE","RECOVERED/RESOLVED","N","N","N","N","N","N","N","2013-09-14","2013-02-28","2013-09-14",-13,186],[270,"CDISCPILOT01","AE","01-703-1100",7,"E09","OEDEMA PERIPHERAL","LEG EDEMA",null,"OEDEMA PERIPHERAL",null,"HLT_0661",null,"HLGT_0137",null,"GENERAL DISORDERS AND ADMINISTRATION SITE CONDITIONS",null,"GENERAL DISORDERS AND ADMINISTRATION SITE CONDITIONS",null,"MILD","N","","REMOTE","NOT RECOVERED/NOT RESOLVED","N","N","N","N","N","N","N","2013-07-31","2013-07-17","2013-09-14",127,186],[271,"CDISCPILOT01","AE","01-703-1100",9,"E09","OEDEMA PERIPHERAL","LEG EDEMA",null,"OEDEMA PERIPHERAL",null,"HLT_0661",null,"HLGT_0137",null,"GENERAL DISORDERS AND ADMINISTRATION SITE CONDITIONS",null,"GENERAL DISORDERS AND ADMINISTRATION SITE CONDITIONS",null,"MILD","N","","REMOTE","RECOVERED/RESOLVED","N","N","N","N","N","N","N","2013-09-14","2013-07-17","2013-09-14",127,186],[272,"CDISCPILOT01","AE","01-703-1100",5,"E08","UPPER RESPIRATORY TRACT INFECTION","UPPER RESPIRATORY INFECTION",null,"UPPER RESPIRATORY TRACT INFECTION",null,"HLT_0520",null,"HLGT_0489",null,"INFECTIONS AND INFESTATIONS",null,"INFECTIONS AND INFESTATIONS",null,"MODERATE","N","","REMOTE","RECOVERED/RESOLVED","N","N","N","N","N","N","N","2013-06-05","2013-05-27","2013-06-03",76,83],[273,"CDISCPILOT01","AE","01-703-1119",1,"E04","APPLICATION SITE IRRITATION","APPLICATION SITE IRRITATION",null,"APPLICATION SITE IRRITATION",null,"HLT_0061",null,"HLGT_0346",null,"GENERAL DISORDERS AND ADMINISTRATION SITE CONDITIONS",null,"GENERAL DISORDERS AND ADMINISTRATION SITE CONDITIONS",null,"MODERATE","N","","PROBABLE","NOT RECOVERED/NOT RESOLVED","N","N","N","N","N","N","N","2013-03-21","2013-03-16","",25,null],[274,"CDISCPILOT01","AE","01-703-1119",2,"E04","APPLICATION SITE IRRITATION","APPLICATION SITE IRRITATION",null,"APPLICATION SITE IRRITATION",null,"HLT_0061",null,"HLGT_0346",null,"GENERAL DISORDERS AND ADMINISTRATION SITE CONDITIONS",null,"GENERAL DISORDERS AND ADMINISTRATION SITE CONDITIONS",null,"SEVERE","N","","PROBABLE","NOT RECOVERED/NOT RESOLVED","N","N","N","N","N","N","N","2013-05-17","2013-03-16","",25,null],[275,"CDISCPILOT01","AE","01-703-1119",3,"E05","PRURITUS","ITCHING",null,"PRURITUS",null,"HLT_0778",null,"HLGT_0695",null,"SKIN AND SUBCUTANEOUS TISSUE DISORDERS",null,"SKIN AND SUBCUTANEOUS TISSUE DISORDERS",null,"MODERATE","N","","PROBABLE","NOT RECOVERED/NOT RESOLVED","N","N","N","N","N","N","N","2013-05-17","2013-05-04","",74,null],[276,"CDISCPILOT01","AE","01-703-1119",4,"E05","PRURITUS","ITCHING",null,"PRURITUS",null,"HLT_0778",null,"HLGT_0695",null,"SKIN AND SUBCUTANEOUS TISSUE DISORDERS",null,"SKIN AND SUBCUTANEOUS TISSUE DISORDERS",null,"SEVERE","N","","PROBABLE","NOT RECOVERED/NOT RESOLVED","N","N","N","N","N","N","N","2013-06-13","2013-05-04","",74,null],[277,"CDISCPILOT01","AE","01-703-1175",1,"E01","ATRIOVENTRICULAR BLOCK SECOND DEGREE","HEART BLOCK SECOND DEGREE",null,"ATRIOVENTRICULAR BLOCK SECOND DEGREE",null,"HLT_0415",null,"HLGT_0086",null,"CARDIAC DISORDERS",null,"CARDIAC DISORDERS",null,"SEVERE","N","","NONE","NOT RECOVERED/NOT RESOLVED","N","N","N","N","N","N","N","2013-12-18","2013-12-18","",-2,null],[278,"CDISCPILOT01","AE","01-703-1182",1,"E05","APPLICATION SITE ERYTHEMA","APPLICATION SITE REDNESS",null,"APPLICATION SITE ERYTHEMA",null,"HLT_0617",null,"HLGT_0152",null,"GENERAL DISORDERS AND ADMINISTRATION SITE CONDITIONS",null,"GENERAL DISORDERS AND ADMINISTRATION SITE CONDITIONS",null,"MILD","N","","POSSIBLE","NOT RECOVERED/NOT RESOLVED","N","N","N","N","N","N","N","2013-10-31","2013-10-31","",15,null],[279,"CDISCPILOT01","AE","01-703-1182",2,"E05","APPLICATION SITE ERYTHEMA","APPLICATION SITE REDNESS",null,"APPLICATION SITE ERYTHEMA",null,"HLT_0617",null,"HLGT_0152",null,"GENERAL DISORDERS AND ADMINISTRATION SITE CONDITIONS",null,"GENERAL DISORDERS AND ADMINISTRATION SITE CONDITIONS",null,"MODERATE","N","","POSSIBLE","NOT RECOVERED/NOT RESOLVED","N","N","N","N","N","N","N","2013-11-28","2013-10-31","",15,null],[280,"CDISCPILOT01","AE","01-703-1182",3,"E07","SOMNOLENCE","DROWSINESS",null,"SOMNOLENCE",null,"HLT_0160",null,"HLGT_0254",null,"NERVOUS SYSTEM DISORDERS",null,"NERVOUS SYSTEM DISORDERS",null,"MILD","N","","REMOTE","NOT RECOVERED/NOT RESOLVED","N","N","N","N","N","N","N","2013-11-28","2013-11-22","",37,null],[281,"CDISCPILOT01","AE","01-703-1182",4,"E07","SOMNOLENCE","DROWSINESS",null,"SOMNOLENCE",null,"HLT_0160",null,"HLGT_0254",null,"NERVOUS SYSTEM DISORDERS",null,"NERVOUS SYSTEM DISORDERS",null,"MODERATE","N","","REMOTE","NOT RECOVERED/NOT RESOLVED","N","N","N","N","N","N","N","2013-12-12","2013-11-22","",37,null],[282,"CDISCPILOT01","AE","01-703-1210",2,"E04","DECREASED APPETITE","DECREASED APPETITE",null,"DECREASED APPETITE",null,"HLT_0574",null,"HLGT_0231",null,"METABOLISM AND NUTRITION DISORDERS",null,"METABOLISM AND NUTRITION DISORDERS",null,"MILD","N","","POSSIBLE","NOT RECOVERED/NOT RESOLVED","N","N","N","N","N","N","N","2013-05-10","2013-05-04","",50,null],[283,"CDISCPILOT01","AE","01-703-1210",3,"E04","DECREASED APPETITE","DECREASED APPETITE",null,"DECREASED APPETITE",null,"HLT_0574",null,"HLGT_0231",null,"METABOLISM AND NUTRITION DISORDERS",null,"METABOLISM AND NUTRITION DISORDERS",null,"MODERATE","N","","POSSIBLE","NOT RECOVERED/NOT RESOLVED","N","N","N","N","N","N","N","2013-08-24","2013-05-04","",50,null],[284,"CDISCPILOT01","AE","01-703-1210",1,"E01","DISORIENTATION","DISORIENTATION",null,"DISORIENTATION",null,"HLT_0299",null,"HLGT_0307",null,"PSYCHIATRIC DISORDERS",null,"PSYCHIATRIC DISORDERS",null,"MILD","N","","REMOTE","NOT RECOVERED/NOT RESOLVED","N","N","N","N","N","N","N","2013-04-12","2013-04-02","",18,null],[285,"CDISCPILOT01","AE","01-703-1258",4,"E08","APPLICATION SITE DERMATITIS","APPLICATION SITE RASH",null,"APPLICATION SITE DERMATITIS",null,"HLT_0343",null,"HLGT_0241",null,"GENERAL DISORDERS AND ADMINISTRATION SITE CONDITIONS",null,"GENERAL DISORDERS AND ADMINISTRATION SITE CONDITIONS",null,"MILD","N","","PROBABLE","NOT RECOVERED/NOT RESOLVED","N","N","N","N","N","N","N","2012-09-04","2012-09-04","2013-01-25",47,190],[286,"CDISCPILOT01","AE","01-703-1258",6,"E08","APPLICATION SITE DERMATITIS","APPLICATION SITE RASH",null,"APPLICATION SITE DERMATITIS",null,"HLT_0343",null,"HLGT_0241",null,"GENERAL DISORDERS AND ADMINISTRATION SITE CONDITIONS",null,"GENERAL DISORDERS AND ADMINISTRATION SITE CONDITIONS",null,"MODERATE","N","","PROBABLE","NOT RECOVERED/NOT RESOLVED","N","N","N","N","N","N","N","2012-09-14","2012-09-04","2013-01-25",47,190],[287,"CDISCPILOT01","AE","01-703-1258",7,"E08","APPLICATION SITE DERMATITIS","APPLICATION SITE RASH",null,"APPLICATION SITE DERMATITIS",null,"HLT_0343",null,"HLGT_0241",null,"GENERAL DISORDERS AND ADMINISTRATION SITE CONDITIONS",null,"GENERAL DISORDERS AND ADMINISTRATION SITE CONDITIONS",null,"MILD","N","","PROBABLE","RECOVERED/RESOLVED","N","N","N","N","N","N","N","2013-01-28","2012-09-04","2013-01-25",47,190],[288,"CDISCPILOT01","AE","01-703-1258",2,"E06","DIZZINESS","DIZZINESS",null,"DIZZINESS",null,"HLT_0619",null,"HLGT_0751",null,"NERVOUS SYSTEM DISORDERS",null,"NERVOUS SYSTEM DISORDERS",null,"MODERATE","N","","NONE","NOT RECOVERED/NOT RESOLVED","N","N","N","N","N","N","N","2012-09-04","2001","",null,null],[289,"CDISCPILOT01","AE","01-703-1258",5,"E06","DIZZINESS","DIZZINESS",null,"DIZZINESS",null,"HLT_0619",null,"HLGT_0751",null,"NERVOUS SYSTEM DISORDERS",null,"NERVOUS SYSTEM DISORDERS",null,"MILD","N","","NONE","NOT RECOVERED/NOT RESOLVED","N","N","N","N","N","N","N","2012-09-14","2001","",null,null],[290,"CDISCPILOT01","AE","01-703-1258",1,"E07","UPPER RESPIRATORY TRACT INFECTION","UPPER RESPIRATORY INFECTION",null,"UPPER RESPIRATORY TRACT INFECTION",null,"HLT_0520",null,"HLGT_0489",null,"INFECTIONS AND INFESTATIONS",null,"INFECTIONS AND INFESTATIONS",null,"MILD","N","","NONE","NOT RECOVERED/NOT RESOLVED","N","N","N","N","N","N","N","2012-08-17","2012-08-11","2012-08-19",23,31],[291,"CDISCPILOT01","AE","01-703-1258",3,"E07","UPPER RESPIRATORY TRACT INFECTION","UPPER RESPIRATORY INFECTION",null,"UPPER RESPIRATORY TRACT INFECTION",null,"HLT_0520",null,"HLGT_0489",null,"INFECTIONS AND INFESTATIONS",null,"INFECTIONS AND INFESTATIONS",null,"MILD","N","","NONE","RECOVERED/RESOLVED","N","N","N","N","N","N","N","2012-09-04","2012-08-11","2012-08-19",23,31],[292,"CDISCPILOT01","AE","01-703-1295",1,"E06","ARTHRITIS","ARTHRITIS",null,"ARTHRITIS",null,"HLT_0019",null,"HLGT_0587",null,"MUSCULOSKELETAL AND CONNECTIVE TISSUE DISORDERS",null,"MUSCULOSKELETAL AND CONNECTIVE TISSUE DISORDERS",null,"MODERATE","N","","NONE","NOT RECOVERED/NOT RESOLVED","N","N","N","N","N","N","N","2014-01-01","2013-12-28","",38,null],[293,"CDISCPILOT01","AE","01-703-1299",3,"E01","GLAUCOMA","GLAUCOMA",null,"GLAUCOMA",null,"HLT_0556",null,"HLGT_0734",null,"EYE DISORDERS",null,"EYE DISORDERS",null,"MODERATE","N","","NONE","NOT RECOVERED/NOT RESOLVED","N","N","N","N","N","N","N","2013-03-01","1992","",null,null],[294,"CDISCPILOT01","AE","01-703-1299",4,"E05","HYPOTENSION","HYPOTENSION",null,"HYPOTENSION",null,"HLT_0761",null,"HLGT_0412",null,"VASCULAR DISORDERS",null,"VASCULAR DISORDERS",null,"MILD","N","","REMOTE","NOT RECOVERED/NOT RESOLVED","N","N","N","N","N","N","N","2013-03-01","2013-03-01","",171,null],[295,"CDISCPILOT01","AE","01-703-1299",6,"E05","HYPOTENSION","HYPOTENSION",null,"HYPOTENSION",null,"HLT_0761",null,"HLGT_0412",null,"VASCULAR DISORDERS",null,"VASCULAR DISORDERS",null,"MODERATE","N","","REMOTE","NOT RECOVERED/NOT RESOLVED","N","N","N","N","N","N","N","2013-03-13","2013-03-01","",171,null],[296,"CDISCPILOT01","AE","01-703-1299",8,"E07","MYOCARDIAL INFARCTION","MYOCARDIAL INFARCTION",null,"MYOCARDIAL INFARCTION",null,"HLT_0649",null,"HLGT_0688",null,"CARDIAC DISORDERS",null,"CARDIAC DISORDERS",null,"MODERATE","N","","REMOTE","NOT RECOVERED/NOT RESOLVED","N","N","N","N","N","N","N","2013-03-13","2013-03-13","",183,null],[297,"CDISCPILOT01","AE","01-703-1299",5,"E06","TACHYCARDIA","TACHYCARDIA",null,"TACHYCARDIA",null,"HLT_0082",null,"HLGT_0574",null,"CARDIAC DISORDERS",null,"CARDIAC DISORDERS",null,"MILD","N","","REMOTE","NOT RECOVERED/NOT RESOLVED","N","N","N","N","N","N","N","2013-03-01","2013-03-01","",171,null],[298,"CDISCPILOT01","AE","01-703-1299",7,"E06","TACHYCARDIA","TACHYCARDIA",null,"TACHYCARDIA",null,"HLT_0082",null,"HLGT_0574",null,"CARDIAC DISORDERS",null,"CARDIAC DISORDERS",null,"MODERATE","N","","REMOTE","NOT RECOVERED/NOT RESOLVED","N","N","N","N","N","N","N","2013-03-13","2013-03-01","",171,null],[299,"CDISCPILOT01","AE","01-703-1299",1,"E02","UPPER RESPIRATORY TRACT INFECTION","UPPER RESPIRATORY INFECTION",null,"UPPER RESPIRATORY TRACT INFECTION",null,"HLT_0520",null,"HLGT_0489",null,"INFECTIONS AND INFESTATIONS",null,"INFECTIONS AND INFESTATIONS",null,"MILD","N","","NONE","NOT RECOVERED/NOT RESOLVED","N","N","N","N","N","N","N","2012-09-28","2012-09-27","2012-10-06",16,25],[300,"CDISCPILOT01","AE","01-703-1299",2,"E02","UPPER RESPIRATORY TRACT INFECTION","UPPER RESPIRATORY INFECTION",null,"UPPER RESPIRATORY TRACT INFECTION",null,"HLT_0520",null,"HLGT_0489",null,"INFECTIONS AND INFESTATIONS",null,"INFECTIONS AND INFESTATIONS",null,"MILD","N","","NONE","RECOVERED/RESOLVED","N","N","N","N","N","N","N","2012-10-10","2012-09-27","2012-10-06",16,25],[301,"CDISCPILOT01","AE","01-703-1335",1,"E01","ATRIOVENTRICULAR BLOCK SECOND DEGREE","AV BLOCK SECOND DEGREE",null,"ATRIOVENTRICULAR BLOCK SECOND DEGREE",null,"HLT_0415",null,"HLGT_0086",null,"CARDIAC DISORDERS",null,"CARDIAC DISORDERS",null,"MILD","N","","NONE","NOT RECOVERED/NOT RESOLVED","N","N","N","N","N","N","N","2014-03-15","2014-03-15","2014-03-30",-2,14],[302,"CDISCPILOT01","AE","01-703-1335",2,"E01","ATRIOVENTRICULAR BLOCK SECOND DEGREE","AV BLOCK SECOND DEGREE",null,"ATRIOVENTRICULAR BLOCK SECOND DEGREE",null,"HLT_0415",null,"HLGT_0086",null,"CARDIAC DISORDERS",null,"CARDIAC DISORDERS",null,"MILD","N","","NONE","RECOVERED/RESOLVED","N","N","N","N","N","N","N","2014-03-31","2014-03-15","2014-03-30",-2,14],[303,"CDISCPILOT01","AE","01-703-1403",4,"E03","CHEST DISCOMFORT","CHEST TIGHTNESS",null,"CHEST DISCOMFORT",null,"HLT_0593",null,"HLGT_0441",null,"GENERAL DISORDERS AND ADMINISTRATION SITE CONDITIONS",null,"GENERAL DISORDERS AND ADMINISTRATION SITE CONDITIONS",null,"MILD","N","","PROBABLE","RECOVERED/RESOLVED","N","N","N","N","N","N","N","2012-12-19","2012-12-15","2012-12-16",4,5],[304,"CDISCPILOT01","AE","01-703-1403",2,"E01","DIARRHOEA","DIARRHEA",null,"DIARRHOEA",null,"HLT_0148",null,"HLGT_0588",null,"GASTROINTESTINAL DISORDERS",null,"GASTROINTESTINAL DISORDERS",null,"MODERATE","N","","PROBABLE","RECOVERED/RESOLVED","N","N","N","N","N","N","N","2012-12-19","2012-12-13","2012-12-14",2,3],[305,"CDISCPILOT01","AE","01-703-1403",3,"E02","VOMITING","VOMITING",null,"VOMITING",null,"HLT_0016",null,"HLGT_0350",null,"GASTROINTESTINAL DISORDERS",null,"GASTROINTESTINAL DISORDERS",null,"MODERATE","N","","PROBABLE","RECOVERED/RESOLVED","N","N","N","N","N","N","N","2012-12-19","2012-12-13","2012-12-14",2,3],[306,"CDISCPILOT01","AE","01-703-1403",1,"E07","WEIGHT DECREASED","WEIGHT LOSS",null,"WEIGHT DECREASED",null,"HLT_0158",null,"HLGT_0778",null,"INVESTIGATIONS",null,"INVESTIGATIONS",null,"MODERATE","N","","NONE","NOT RECOVERED/NOT RESOLVED","N","N","N","N","N","N","N","2012-12-19","2012-12-12","2012-12-19",1,8],[307,"CDISCPILOT01","AE","01-703-1403",5,"E07","WEIGHT DECREASED","WEIGHT LOSS",null,"WEIGHT DECREASED",null,"HLT_0158",null,"HLGT_0778",null,"INVESTIGATIONS",null,"INVESTIGATIONS",null,"MODERATE","N","","NONE","RECOVERED/RESOLVED","N","N","N","N","N","N","N","2013-01-08","2012-12-12","2012-12-19",1,8],[308,"CDISCPILOT01","AE","01-703-1439",1,"E01","APPLICATION SITE IRRITATION","APPLICATION SITE IRRITATION",null,"APPLICATION SITE IRRITATION",null,"HLT_0061",null,"HLGT_0346",null,"GENERAL DISORDERS AND ADMINISTRATION SITE CONDITIONS",null,"GENERAL DISORDERS AND ADMINISTRATION SITE CONDITIONS",null,"MILD","N","","PROBABLE","NOT RECOVERED/NOT RESOLVED","N","N","N","N","N","N","N","2014-05-05","2014-04-24","",44,null],[309,"CDISCPILOT01","AE","01-703-1439",2,"E01","APPLICATION SITE IRRITATION","APPLICATION SITE IRRITATION",null,"APPLICATION SITE IRRITATION",null,"HLT_0061",null,"HLGT_0346",null,"GENERAL DISORDERS AND ADMINISTRATION SITE CONDITIONS",null,"GENERAL DISORDERS AND ADMINISTRATION SITE CONDITIONS",null,"MODERATE","N","","PROBABLE","NOT RECOVERED/NOT RESOLVED","N","N","N","N","N","N","N","2014-06-30","2014-04-24","",44,null],[310,"CDISCPILOT01","AE","01-704-1008",1,"E03","HYPERHIDROSIS","SWEATING INCREASED",null,"HYPERHIDROSIS",null,"HLT_0587",null,"HLGT_0005",null,"SKIN AND SUBCUTANEOUS TISSUE DISORDERS",null,"SKIN AND SUBCUTANEOUS TISSUE DISORDERS",null,"MILD","N","","POSSIBLE","NOT RECOVERED/NOT RESOLVED","N","N","N","N","N","N","N","2013-02-09","2013-01-30","",18,null],[311,"CDISCPILOT01","AE","01-704-1008",3,"E05","SINUS BRADYCARDIA","SINUS BRADYCARDIA",null,"SINUS BRADYCARDIA",null,"HLT_0644",null,"HLGT_0500",null,"CARDIAC DISORDERS",null,"CARDIAC DISORDERS",null,"MODERATE","N","","NONE","NOT RECOVERED/NOT RESOLVED","N","N","N","N","N","N","N","2013-02-25","2013-02-25","",44,null],[312,"CDISCPILOT01","AE","01-704-1008",2,"E06","TRANSIENT ISCHAEMIC ATTACK","TRANSIENT ISCHEMIC ATTACKS",null,"TRANSIENT ISCHAEMIC ATTACK",null,"HLT_0041",null,"HLGT_0433",null,"NERVOUS SYSTEM DISORDERS",null,"NERVOUS SYSTEM DISORDERS",null,"SEVERE","N","","NONE","RECOVERED/RESOLVED","N","N","N","N","Y","N","N","2013-02-25","2013-02-21","2013-02-21",40,40],[313,"CDISCPILOT01","AE","01-704-1009",5,"E07","DIZZINESS","DIZZINESS",null,"DIZZINESS",null,"HLT_0619",null,"HLGT_0751",null,"NERVOUS SYSTEM DISORDERS",null,"NERVOUS SYSTEM DISORDERS",null,"MILD","N","","REMOTE","NOT RECOVERED/NOT RESOLVED","N","N","N","N","N","N","N","2013-10-02","2013-09-17","",22,null],[314,"CDISCPILOT01","AE","01-704-1009",1,"E09","FATIGUE","FATIGUE",null,"FATIGUE",null,"HLT_0043",null,"HLGT_0181",null,"GENERAL DISORDERS AND ADMINISTRATION SITE CONDITIONS",null,"GENERAL DISORDERS AND ADMINISTRATION SITE CONDITIONS",null,"MILD","N","","REMOTE","NOT RECOVERED/NOT RESOLVED","N","N","N","N","N","N","N","2013-09-14","2013-09-05","",10,null],[315,"CDISCPILOT01","AE","01-704-1009",2,"E10","MALAISE","MALAISE",null,"MALAISE",null,"HLT_0456",null,"HLGT_0178",null,"GENERAL DISORDERS AND ADMINISTRATION SITE CONDITIONS",null,"GENERAL DISORDERS AND ADMINISTRATION SITE CONDITIONS",null,"MILD","N","","POSSIBLE","NOT RECOVERED/NOT RESOLVED","N","N","N","N","N","N","N","2013-09-14","2013-09-05","2013-09-27",10,32],[316,"CDISCPILOT01","AE","01-704-1009",4,"E10","MALAISE","MALAISE",null,"MALAISE",null,"HLT_0456",null,"HLGT_0178",null,"GENERAL DISORDERS AND ADMINISTRATION SITE CONDITIONS",null,"GENERAL DISORDERS AND ADMINISTRATION SITE CONDITIONS",null,"MILD","N","","POSSIBLE","RECOVERED/RESOLVED","N","N","N","N","N","N","N","2013-10-02","2013-09-05","2013-09-27",10,32],[317,"CDISCPILOT01","AE","01-704-1009",6,"E08","NAUSEA","NAUSEA",null,"NAUSEA",null,"HLT_0742",null,"HLGT_0326",null,"GASTROINTESTINAL DISORDERS",null,"GASTROINTESTINAL DISORDERS",null,"MILD","N","","POSSIBLE","RECOVERED/RESOLVED","N","N","N","N","N","N","N","2013-10-02","2013-09-22","2013-09-23",27,28],[318,"CDISCPILOT01","AE","01-704-1009",3,"E03","RASH","RASH",null,"RASH",null,"HLT_0762",null,"HLGT_0198",null,"SKIN AND SUBCUTANEOUS TISSUE DISORDERS",null,"SKIN AND SUBCUTANEOUS TISSUE DISORDERS",null,"MILD","N","","POSSIBLE","NOT RECOVERED/NOT RESOLVED","N","N","N","N","N","N","N","2013-09-14","2013-09-14","",19,null],[319,"CDISCPILOT01","AE","01-704-1010",6,"E07","ARTHRALGIA","KNEE PAIN",null,"ARTHRALGIA",null,"HLT_0375",null,"HLGT_0610",null,"MUSCULOSKELETAL AND CONNECTIVE TISSUE DISORDERS",null,"MUSCULOSKELETAL AND CONNECTIVE TISSUE DISORDERS",null,"MILD","N","","NONE","NOT RECOVERED/NOT RESOLVED","N","N","N","N","N","N","N","2014-07-09","2014-07-06","",136,null],[320,"CDISCPILOT01","AE","01-704-1010",7,"E08","CONTUSION","BRUISE OF HEAD",null,"CONTUSION",null,"HLT_0713",null,"HLGT_0381",null,"INJURY, POISONING AND PROCEDURAL COMPLICATIONS",null,"INJURY, POISONING AND PROCEDURAL COMPLICATIONS",null,"MILD","N","","NONE","NOT RECOVERED/NOT RESOLVED","N","N","N","N","N","N","N","2014-07-09","2014-07-06","",136,null],[321,"CDISCPILOT01","AE","01-704-1010",1,"E01","CYSTITIS","BLADDER INFECTION",null,"CYSTITIS",null,"HLT_0739",null,"HLGT_0129",null,"INFECTIONS AND INFESTATIONS",null,"INFECTIONS AND INFESTATIONS",null,"MILD","N","","NONE","RECOVERED/RESOLVED","N","N","N","N","N","N","N","2014-03-08","2014-02-27","2014-03-06",7,14],[322,"CDISCPILOT01","AE","01-704-1010",3,"E04","DIARRHOEA","DIARRHEA",null,"DIARRHOEA",null,"HLT_0148",null,"HLGT_0588",null,"GASTROINTESTINAL DISORDERS",null,"GASTROINTESTINAL DISORDERS",null,"MILD","N","","NONE","RECOVERED/RESOLVED","N","N","N","N","N","N","N","2014-07-09","2014-07-05","2014-07-06",135,136],[323,"CDISCPILOT01","AE","01-704-1010",4,"E05","EXCORIATION","ABRASION NOS",null,"EXCORIATION",null,"HLT_0738",null,"HLGT_0511",null,"INJURY, POISONING AND PROCEDURAL COMPLICATIONS",null,"INJURY, POISONING AND PROCEDURAL COMPLICATIONS",null,"MILD","N","","NONE","NOT RECOVERED/NOT RESOLVED","N","N","N","N","N","N","N","2014-07-09","2014-07-06","",136,null],[324,"CDISCPILOT01","AE","01-704-1010",5,"E06","SKIN LACERATION","SKIN TEAR",null,"SKIN LACERATION",null,"HLT_0075",null,"HLGT_0118",null,"INJURY, POISONING AND PROCEDURAL COMPLICATIONS",null,"INJURY, POISONING AND PROCEDURAL COMPLICATIONS",null,"MILD","N","","NONE","NOT RECOVERED/NOT RESOLVED","N","N","N","N","N","N","N","2014-07-09","2014-07-06","",136,null],[325,"CDISCPILOT01","AE","01-704-1010",2,"E03","VOMITING","VOMITING",null,"VOMITING",null,"HLT_0016",null,"HLGT_0350",null,"GASTROINTESTINAL DISORDERS",null,"GASTROINTESTINAL DISORDERS",null,"MILD","N","","NONE","RECOVERED/RESOLVED","N","N","N","N","N","N","N","2014-07-09","2014-07-05","2014-07-06",135,136],[326,"CDISCPILOT01","AE","01-704-1017",4,"E16","CARDIAC DISORDER","CARDIAC DISORDER",null,"CARDIAC DISORDER",null,"HLT_0507",null,"HLGT_0126",null,"CARDIAC DISORDERS",null,"CARDIAC DISORDERS",null,"MILD","N","","NONE","NOT RECOVERED/NOT RESOLVED","N","N","N","N","N","N","N","2013-11-09","2013-11-01","",27,null],[327,"CDISCPILOT01","AE","01-704-1017",3,"E13","INFLUENZA","FLU",null,"INFLUENZA",null,"HLT_0125",null,"HLGT_0081",null,"INFECTIONS AND INFESTATIONS",null,"INFECTIONS AND INFESTATIONS",null,"MILD","N","","NONE","RECOVERED/RESOLVED","N","N","N","N","N","N","N","2013-11-09","2013-11-01","2013-11-08",27,34],[328,"CDISCPILOT01","AE","01-704-1017",1,"E14","MYOCARDIAL INFARCTION","MYOCARDIAL INFARCTION",null,"MYOCARDIAL INFARCTION",null,"HLT_0649",null,"HLGT_0688",null,"CARDIAC DISORDERS",null,"CARDIAC DISORDERS",null,"MILD","N","","NONE","NOT RECOVERED/NOT RESOLVED","N","N","N","N","N","N","N","2013-10-19","2013-10-19","",14,null],[329,"CDISCPILOT01","AE","01-704-1017",6,"E12","PRURITUS","ITCHING",null,"PRURITUS",null,"HLT_0778",null,"HLGT_0695",null,"SKIN AND SUBCUTANEOUS TISSUE DISORDERS",null,"SKIN AND SUBCUTANEOUS TISSUE DISORDERS",null,"MILD","N","","PROBABLE","NOT RECOVERED/NOT RESOLVED","N","N","N","N","N","N","N","2013-11-09","2013-11-05","2013-11-22",31,48],[330,"CDISCPILOT01","AE","01-704-1017",8,"E12","PRURITUS","ITCHING",null,"PRURITUS",null,"HLT_0778",null,"HLGT_0695",null,"SKIN AND SUBCUTANEOUS TISSUE DISORDERS",null,"SKIN AND SUBCUTANEOUS TISSUE DISORDERS",null,"MILD","N","","PROBABLE","RECOVERED/RESOLVED","N","N","N","N","N","N","N","2013-11-24","2013-11-05","2013-11-22",31,48],[331,"CDISCPILOT01","AE","01-704-1017",5,"E11","RASH","RASH",null,"RASH",null,"HLT_0762",null,"HLGT_0198",null,"SKIN AND SUBCUTANEOUS TISSUE DISORDERS",null,"SKIN AND SUBCUTANEOUS TISSUE DISORDERS",null,"MILD","N","","PROBABLE","NOT RECOVERED/NOT RESOLVED","N","N","N","N","N","N","N","2013-11-09","2013-11-05","2013-11-22",31,48],[332,"CDISCPILOT01","AE","01-704-1017",7,"E11","RASH","RASH",null,"RASH",null,"HLT_0762",null,"HLGT_0198",null,"SKIN AND SUBCUTANEOUS TISSUE DISORDERS",null,"SKIN AND SUBCUTANEOUS TISSUE DISORDERS",null,"MILD","N","","PROBABLE","RECOVERED/RESOLVED","N","N","N","N","N","N","N","2013-11-24","2013-11-05","2013-11-22",31,48],[333,"CDISCPILOT01","AE","01-704-1017",2,"E15","VENTRICULAR SEPTAL DEFECT","VENTRICULAR SEPTAL DEFECT",null,"VENTRICULAR SEPTAL DEFECT",null,"HLT_0589",null,"HLGT_0747",null,"CONGENITAL, FAMILIAL AND GENETIC DISORDERS",null,"CONGENITAL, FAMILIAL AND GENETIC DISORDERS",null,"MILD","N","","NONE","NOT RECOVERED/NOT RESOLVED","N","N","N","N","N","N","N","2013-10-19","2013-10-19","",14,null],[334,"CDISCPILOT01","AE","01-704-1025",3,"E05","ELECTROCARDIOGRAM ST SEGMENT DEPRESSION","ST SEGMENT DEPRESSED",null,"ELECTROCARDIOGRAM ST SEGMENT DEPRESSION",null,"HLT_0610",null,"HLGT_0220",null,"INVESTIGATIONS",null,"INVESTIGATIONS",null,"MILD","N","","POSSIBLE","NOT RECOVERED/NOT RESOLVED","N","N","N","N","N","N","N","2013-10-11","2013-10-11","2013-10-25",15,29],[335,"CDISCPILOT01","AE","01-704-1025",5,"E05","ELECTROCARDIOGRAM ST SEGMENT DEPRESSION","ST SEGMENT DEPRESSED",null,"ELECTROCARDIOGRAM ST SEGMENT DEPRESSION",null,"HLT_0610",null,"HLGT_0220",null,"INVESTIGATIONS",null,"INVESTIGATIONS",null,"MILD","N","","POSSIBLE","RECOVERED/RESOLVED","N","N","N","N","N","N","N","2013-11-29","2013-10-11","2013-10-25",15,29],[336,"CDISCPILOT01","AE","01-704-1025",2,"E02","PALPITATIONS","PALPITATIONS",null,"PALPITATIONS",null,"HLT_0493",null,"HLGT_0593",null,"CARDIAC DISORDERS",null,"CARDIAC DISORDERS",null,"MODERATE","N","","REMOTE","RECOVERED/RESOLVED","N","N","N","N","N","N","N","2013-10-11","2013-09-28","2013-09-30",2,4],[337,"CDISCPILOT01","AE","01-704-1025",1,"E01","VERTIGO","VERTIGO",null,"VERTIGO",null,"HLT_0255",null,"HLGT_0147",null,"EAR AND LABYRINTH DISORDERS",null,"EAR AND LABYRINTH DISORDERS",null,"MODERATE","N","","POSSIBLE","RECOVERED/RESOLVED","N","N","N","N","N","N","N","2013-10-11","2013-09-28","2013-09-30",2,4],[338,"CDISCPILOT01","AE","01-704-1025",4,"E06","WOLFF-PARKINSON-WHITE SYNDROME","WOLFF-PARKINSON-WHITE SYNDROME",null,"WOLFF-PARKINSON-WHITE SYNDROME",null,"HLT_0612",null,"HLGT_0218",null,"CARDIAC DISORDERS",null,"CARDIAC DISORDERS",null,"MILD","N","","POSSIBLE","NOT RECOVERED/NOT RESOLVED","N","N","N","N","N","N","N","2013-10-25","2013-10-25","2013-11-29",29,64],[339,"CDISCPILOT01","AE","01-704-1025",6,"E06","WOLFF-PARKINSON-WHITE SYNDROME","WOLFF-PARKINSON-WHITE SYNDROME",null,"WOLFF-PARKINSON-WHITE SYNDROME",null,"HLT_0612",null,"HLGT_0218",null,"CARDIAC DISORDERS",null,"CARDIAC DISORDERS",null,"MILD","N","","POSSIBLE","RECOVERED/RESOLVED","N","N","N","N","N","N","N","2013-11-29","2013-10-25","2013-11-29",29,64],[340,"CDISCPILOT01","AE","01-704-1065",1,"E13","ABDOMINAL DISCOMFORT","ABDOMINAL DISCOMFORT",null,"ABDOMINAL DISCOMFORT",null,"HLT_0012",null,"HLGT_0332",null,"GASTROINTESTINAL DISORDERS",null,"GASTROINTESTINAL DISORDERS",null,"MILD","N","","REMOTE","NOT RECOVERED/NOT RESOLVED","N","N","N","N","N","N","N","2013-11-07","2013-10-26","",3,null],[341,"CDISCPILOT01","AE","01-704-1065",4,"E12","APPLICATION SITE IRRITATION","APPLICATION SITE BURNING",null,"APPLICATION SITE IRRITATION",null,"HLT_0061",null,"HLGT_0346",null,"GENERAL DISORDERS AND ADMINISTRATION SITE CONDITIONS",null,"GENERAL DISORDERS AND ADMINISTRATION SITE CONDITIONS",null,"MILD","N","","PROBABLE","NOT RECOVERED/NOT RESOLVED","N","N","N","N","N","N","N","2013-11-25","2013-11-09","",17,null],[342,"CDISCPILOT01","AE","01-704-1065",3,"E10","APPLICATION SITE PRURITUS","APPLICATION SITE ITCHING",null,"APPLICATION SITE PRURITUS",null,"HLT_0317",null,"HLGT_0338",null,"GENERAL DISORDERS AND ADMINISTRATION SITE CONDITIONS",null,"GENERAL DISORDERS AND ADMINISTRATION SITE CONDITIONS",null,"MODERATE","N","","PROBABLE","NOT RECOVERED/NOT RESOLVED","N","N","N","N","N","N","N","2013-11-07","2013-10-27","",4,null],[343,"CDISCPILOT01","AE","01-704-1065",7,"E16","CHILLS","CHILLS",null,"CHILLS",null,"HLT_0586",null,"HLGT_0161",null,"GENERAL DISORDERS AND ADMINISTRATION SITE CONDITIONS",null,"GENERAL DISORDERS AND ADMINISTRATION SITE CONDITIONS",null,"MILD","N","","REMOTE","RECOVERED/RESOLVED","N","N","N","N","N","N","N","2013-11-25","2013-11-17","2013-11-17",25,25],[344,"CDISCPILOT01","AE","01-704-1065",9,"E18","DIARRHOEA","DIARRHEA",null,"DIARRHOEA",null,"HLT_0148",null,"HLGT_0588",null,"GASTROINTESTINAL DISORDERS",null,"GASTROINTESTINAL DISORDERS",null,"MILD","N","","REMOTE","RECOVERED/RESOLVED","N","N","N","N","N","N","N","2013-12-20","2013-12-15","2013-12-15",53,53],[345,"CDISCPILOT01","AE","01-704-1065",8,"E17","DIZZINESS","DIZZINESS",null,"DIZZINESS",null,"HLT_0619",null,"HLGT_0751",null,"NERVOUS SYSTEM DISORDERS",null,"NERVOUS SYSTEM DISORDERS",null,"MILD","N","","REMOTE","RECOVERED/RESOLVED","N","N","N","N","N","N","N","2013-11-25","2013-11-17","2013-11-17",25,25],[346,"CDISCPILOT01","AE","01-704-1065",6,"E15","HYPERHIDROSIS","PERSPIRATION EXCESSIVE",null,"HYPERHIDROSIS",null,"HLT_0587",null,"HLGT_0005",null,"SKIN AND SUBCUTANEOUS TISSUE DISORDERS",null,"SKIN AND SUBCUTANEOUS TISSUE DISORDERS",null,"MILD","N","","POSSIBLE","NOT RECOVERED/NOT RESOLVED","N","N","N","N","N","N","N","2013-11-25","2013-11-09","",17,null],[347,"CDISCPILOT01","AE","01-704-1065",5,"E14","MALAISE","MALAISE",null,"MALAISE",null,"HLT_0456",null,"HLGT_0178",null,"GENERAL DISORDERS AND ADMINISTRATION SITE CONDITIONS",null,"GENERAL DISORDERS AND ADMINISTRATION SITE CONDITIONS",null,"MILD","N","","POSSIBLE","NOT RECOVERED/NOT RESOLVED","N","N","N","N","N","N","N","2013-11-25","2013-11-09","",17,null],[348,"CDISCPILOT01","AE","01-704-1065",2,"E07","RASH","RASH",null,"RASH",null,"HLT_0762",null,"HLGT_0198",null,"SKIN AND SUBCUTANEOUS TISSUE DISORDERS",null,"SKIN AND SUBCUTANEOUS TISSUE DISORDERS",null,"MILD","N","","PROBABLE","NOT RECOVERED/NOT RESOLVED","N","N","N","N","N","N","N","2013-11-07","2013-10-27","",4,null],[349,"CDISCPILOT01","AE","01-704-1065",10,"E19","SINUS BRADYCARDIA","BRADYCARDIA SINUS",null,"SINUS BRADYCARDIA",null,"HLT_0644",null,"HLGT_0500",null,"CARDIAC DISORDERS",null,"CARDIAC DISORDERS",null,"MILD","N","","NONE","NOT RECOVERED/NOT RESOLVED","N","N","N","N","N","N","N","2013-12-24","2013-12-24","",62,null],[350,"CDISCPILOT01","AE","01-704-1074",2,"E09","ERYTHEMA","SKIN RED",null,"ERYTHEMA",null,"HLT_0284",null,"HLGT_0192",null,"SKIN AND SUBCUTANEOUS TISSUE DISORDERS",null,"SKIN AND SUBCUTANEOUS TISSUE DISORDERS",null,"MILD","N","","PROBABLE","NOT RECOVERED/NOT RESOLVED","N","N","N","N","N","N","N","2014-02-09","2014-02-09","",19,null],[351,"CDISCPILOT01","AE","01-704-1074",1,"E08","PRURITUS","ITCHING",null,"PRURITUS",null,"HLT_0778",null,"HLGT_0695",null,"SKIN AND SUBCUTANEOUS TISSUE DISORDERS",null,"SKIN AND SUBCUTANEOUS TISSUE DISORDERS",null,"MILD","N","","PROBABLE","NOT RECOVERED/NOT RESOLVED","N","N","N","N","N","N","N","2014-01-22","2014-01-22","",1,null],[352,"CDISCPILOT01","AE","01-704-1093",1,"E02","BLOOD GLUCOSE INCREASED","GLUCOSE INCREASED",null,"BLOOD GLUCOSE INCREASED",null,"HLT_0450",null,"HLGT_0188",null,"INVESTIGATIONS",null,"INVESTIGATIONS",null,"MILD","N","","NONE","NOT RECOVERED/NOT RESOLVED","N","N","N","N","N","N","N","2013-03-30","2013-03-30","2013-04-13",16,30],[353,"CDISCPILOT01","AE","01-704-1093",2,"E02","BLOOD GLUCOSE INCREASED","GLUCOSE INCREASED",null,"BLOOD GLUCOSE INCREASED",null,"HLT_0450",null,"HLGT_0188",null,"INVESTIGATIONS",null,"INVESTIGATIONS",null,"MILD","N","","NONE","RECOVERED/RESOLVED","N","N","N","N","N","N","N","2013-04-17","2013-03-30","2013-04-13",16,30],[354,"CDISCPILOT01","AE","01-704-1093",4,"E06","PRURITUS","ITCHING",null,"PRURITUS",null,"HLT_0778",null,"HLGT_0695",null,"SKIN AND SUBCUTANEOUS TISSUE DISORDERS",null,"SKIN AND SUBCUTANEOUS TISSUE DISORDERS",null,"MILD","N","","PROBABLE","NOT RECOVERED/NOT RESOLVED","N","N","N","N","N","N","N","2013-05-11","2013-05-04","",51,null],[355,"CDISCPILOT01","AE","01-704-1093",3,"E05","RASH","RASH",null,"RASH",null,"HLT_0762",null,"HLGT_0198",null,"SKIN AND SUBCUTANEOUS TISSUE DISORDERS",null,"SKIN AND SUBCUTANEOUS TISSUE DISORDERS",null,"MILD","N","","PROBABLE","NOT RECOVERED/NOT RESOLVED","N","N","N","N","N","N","N","2013-05-11","2013-05-04","",51,null],[356,"CDISCPILOT01","AE","01-704-1114",1,"E06","ERYTHEMA","REDNESS",null,"ERYTHEMA",null,"HLT_0284",null,"HLGT_0192",null,"SKIN AND SUBCUTANEOUS TISSUE DISORDERS",null,"SKIN AND SUBCUTANEOUS TISSUE DISORDERS",null,"MILD","N","","PROBABLE","RECOVERED/RESOLVED","N","N","N","N","N","N","N","2013-03-13","2013-02-21","2013-02-23",30,32],[357,"CDISCPILOT01","AE","01-704-1114",5,"E07","INFLUENZA","FLU",null,"INFLUENZA",null,"HLT_0125",null,"HLGT_0081",null,"INFECTIONS AND INFESTATIONS",null,"INFECTIONS AND INFESTATIONS",null,"MILD","N","","NONE","RECOVERED/RESOLVED","N","N","N","N","N","N","N","2013-06-16","2013-06-07","2013-06-13",136,142],[358,"CDISCPILOT01","AE","01-704-1114",2,"E03","OEDEMA","EDEMA",null,"OEDEMA",null,"HLT_0656",null,"HLGT_0036",null,"GENERAL DISORDERS AND ADMINISTRATION SITE CONDITIONS",null,"GENERAL DISORDERS AND ADMINISTRATION SITE CONDITIONS",null,"MILD","N","","PROBABLE","NOT RECOVERED/NOT RESOLVED","N","N","N","N","N","N","N","2013-03-13","2013-02-23","",32,null],[359,"CDISCPILOT01","AE","01-704-1114",4,"E05","PRURITUS","ITCHING",null,"PRURITUS",null,"HLT_0778",null,"HLGT_0695",null,"SKIN AND SUBCUTANEOUS TISSUE DISORDERS",null,"SKIN AND SUBCUTANEOUS TISSUE DISORDERS",null,"MILD","N","","PROBABLE","NOT RECOVERED/NOT RESOLVED","N","N","N","N","N","N","N","2013-03-26","2013-03-23","",60,null],[360,"CDISCPILOT01","AE","01-704-1114",3,"E04","RASH","RASH",null,"RASH",null,"HLT_0762",null,"HLGT_0198",null,"SKIN AND SUBCUTANEOUS TISSUE DISORDERS",null,"SKIN AND SUBCUTANEOUS TISSUE DISORDERS",null,"MILD","N","","PROBABLE","NOT RECOVERED/NOT RESOLVED","N","N","N","N","N","N","N","2013-03-26","2013-03-23","",60,null],[361,"CDISCPILOT01","AE","01-704-1120",2,"E02","NASOPHARYNGITIS","COLD",null,"NASOPHARYNGITIS",null,"HLT_0036",null,"HLGT_0709",null,"INFECTIONS AND INFESTATIONS",null,"INFECTIONS AND INFESTATIONS",null,"MILD","N","","NONE","NOT RECOVERED/NOT RESOLVED","N","N","N","N","N","N","N","2013-12-29","2013-12-28","2014-02-03",27,64],[362,"CDISCPILOT01","AE","01-704-1120",6,"E02","NASOPHARYNGITIS","COLD",null,"NASOPHARYNGITIS",null,"HLT_0036",null,"HLGT_0709",null,"INFECTIONS AND INFESTATIONS",null,"INFECTIONS AND INFESTATIONS",null,"MILD","N","","NONE","RECOVERED/RESOLVED","N","N","N","N","N","N","N","2014-03-10","2013-12-28","2014-02-03",27,64],[363,"CDISCPILOT01","AE","01-704-1120",4,"E04","PRURITUS","ITCHING",null,"PRURITUS",null,"HLT_0778",null,"HLGT_0695",null,"SKIN AND SUBCUTANEOUS TISSUE DISORDERS",null,"SKIN AND SUBCUTANEOUS TISSUE DISORDERS",null,"MILD","N","","PROBABLE","NOT RECOVERED/NOT RESOLVED","N","N","N","N","N","N","N","2014-01-27","2014-01-27","",57,null],[364,"CDISCPILOT01","AE","01-704-1120",5,"E04","PRURITUS","ITCHING",null,"PRURITUS",null,"HLT_0778",null,"HLGT_0695",null,"SKIN AND SUBCUTANEOUS TISSUE DISORDERS",null,"SKIN AND SUBCUTANEOUS TISSUE DISORDERS",null,"MODERATE","N","","PROBABLE","NOT RECOVERED/NOT RESOLVED","N","N","N","N","N","N","N","2014-02-03","2014-01-27","",57,null],[365,"CDISCPILOT01","AE","01-704-1120",1,"E01","RASH","RASH",null,"RASH",null,"HLT_0762",null,"HLGT_0198",null,"SKIN AND SUBCUTANEOUS TISSUE DISORDERS",null,"SKIN AND SUBCUTANEOUS TISSUE DISORDERS",null,"MILD","N","","PROBABLE","NOT RECOVERED/NOT RESOLVED","N","N","N","N","N","N","N","2013-12-29","2013-12-23","",22,null],[366,"CDISCPILOT01","AE","01-704-1120",3,"E01","RASH","RASH",null,"RASH",null,"HLT_0762",null,"HLGT_0198",null,"SKIN AND SUBCUTANEOUS TISSUE DISORDERS",null,"SKIN AND SUBCUTANEOUS TISSUE DISORDERS",null,"MODERATE","N","","PROBABLE","NOT RECOVERED/NOT RESOLVED","N","N","N","N","N","N","N","2014-01-27","2013-12-23","",22,null],[367,"CDISCPILOT01","AE","01-704-1135",1,"E01","RASH","RASH",null,"RASH",null,"HLT_0762",null,"HLGT_0198",null,"SKIN AND SUBCUTANEOUS TISSUE DISORDERS",null,"SKIN AND SUBCUTANEOUS TISSUE DISORDERS",null,"MILD","N","","","NOT RECOVERED/NOT RESOLVED","N","N","N","N","N","N","N","2013-12-11","2013-12-08","",39,null],[368,"CDISCPILOT01","AE","01-704-1135",2,"E01","RASH","RASH",null,"RASH",null,"HLT_0762",null,"HLGT_0198",null,"SKIN AND SUBCUTANEOUS TISSUE DISORDERS",null,"SKIN AND SUBCUTANEOUS TISSUE DISORDERS",null,"SEVERE","N","","","NOT RECOVERED/NOT RESOLVED","N","N","N","N","N","N","N","2014-02-19","2013-12-08","",39,null],[369,"CDISCPILOT01","AE","01-704-1164",1,"E02","INFLUENZA","FLU",null,"INFLUENZA",null,"HLT_0125",null,"HLGT_0081",null,"INFECTIONS AND INFESTATIONS",null,"INFECTIONS AND INFESTATIONS",null,"MILD","N","","NONE","NOT RECOVERED/NOT RESOLVED","N","N","N","N","N","N","N","2012-10-04","2012-09-27","2012-10-07",9,19],[370,"CDISCPILOT01","AE","01-704-1164",2,"E02","INFLUENZA","FLU",null,"INFLUENZA",null,"HLT_0125",null,"HLGT_0081",null,"INFECTIONS AND INFESTATIONS",null,"INFECTIONS AND INFESTATIONS",null,"MILD","N","","NONE","RECOVERED/RESOLVED","N","N","N","N","N","N","N","2012-10-21","2012-09-27","2012-10-07",9,19],[371,"CDISCPILOT01","AE","01-704-1164",3,"E07","OEDEMA PERIPHERAL","SWELLING OF FEET",null,"OEDEMA PERIPHERAL",null,"HLT_0661",null,"HLGT_0137",null,"GENERAL DISORDERS AND ADMINISTRATION SITE CONDITIONS",null,"GENERAL DISORDERS AND ADMINISTRATION SITE CONDITIONS",null,"MILD","N","","NONE","RECOVERED/RESOLVED","N","N","N","N","N","N","N","2013-02-14","2013-02-04","2013-02-13",139,148],[372,"CDISCPILOT01","AE","01-704-1218",1,"E05","BLOOD GLUCOSE INCREASED","GLUCOSE INCREASED",null,"BLOOD GLUCOSE INCREASED",null,"HLT_0450",null,"HLGT_0188",null,"INVESTIGATIONS",null,"INVESTIGATIONS",null,"MILD","N","","NONE","NOT RECOVERED/NOT RESOLVED","N","N","N","N","N","N","N","2012-12-30","2012-12-30","",42,null],[373,"CDISCPILOT01","AE","01-704-1241",2,"E03","DYSPNOEA","RESPIRATION LABORED",null,"DYSPNOEA",null,"HLT_0296",null,"HLGT_0255",null,"RESPIRATORY, THORACIC AND MEDIASTINAL DISORDERS",null,"RESPIRATORY, THORACIC AND MEDIASTINAL DISORDERS",null,"MILD","N","","NONE","NOT RECOVERED/NOT RESOLVED","N","N","N","N","N","N","N","2013-10-09","2013-09-28","",35,null],[374,"CDISCPILOT01","AE","01-704-1241",1,"E04","RASH","RASH",null,"RASH",null,"HLT_0762",null,"HLGT_0198",null,"SKIN AND SUBCUTANEOUS TISSUE DISORDERS",null,"SKIN AND SUBCUTANEOUS TISSUE DISORDERS",null,"MODERATE","N","","NONE","NOT RECOVERED/NOT RESOLVED","N","N","N","N","N","N","N","2013-10-09","2013-08-14","",-11,null],[375,"CDISCPILOT01","AE","01-704-1266",4,"E13","ATRIAL FIBRILLATION","ATRIAL FIBRILLATION",null,"ATRIAL FIBRILLATION",null,"HLT_0365",null,"HLGT_0012",null,"CARDIAC DISORDERS",null,"CARDIAC DISORDERS",null,"MILD","N","","NONE","NOT RECOVERED/NOT RESOLVED","N","N","N","N","N","N","N","2013-11-08","2013-11-08","2013-12-06",27,55],[376,"CDISCPILOT01","AE","01-704-1266",13,"E13","ATRIAL FIBRILLATION","ATRIAL FIBRILLATION",null,"ATRIAL FIBRILLATION",null,"HLT_0365",null,"HLGT_0012",null,"CARDIAC DISORDERS",null,"CARDIAC DISORDERS",null,"MILD","N","","NONE","RECOVERED/RESOLVED","N","N","N","N","N","N","N","2014-01-03","2013-11-08","2013-12-06",27,55],[377,"CDISCPILOT01","AE","01-704-1266",3,"E12","ATRIAL FLUTTER","ATRIAL FLUTTER",null,"ATRIAL FLUTTER",null,"HLT_0477",null,"HLGT_0627",null,"CARDIAC DISORDERS",null,"CARDIAC DISORDERS",null,"MILD","N","","NONE","NOT RECOVERED/NOT RESOLVED","N","N","N","N","N","N","N","2013-10-27","2013-10-27","2013-11-08",15,27],[378,"CDISCPILOT01","AE","01-704-1266",5,"E12","ATRIAL FLUTTER","ATRIAL FLUTTER",null,"ATRIAL FLUTTER",null,"HLT_0477",null,"HLGT_0627",null,"CARDIAC DISORDERS",null,"CARDIAC DISORDERS",null,"MILD","N","","NONE","RECOVERED/RESOLVED","N","N","N","N","N","N","N","2013-11-10","2013-10-27","2013-11-08",15,27],[379,"CDISCPILOT01","AE","01-704-1266",7,"E16","BLISTER","BLISTERING",null,"BLISTER",null,"HLT_0752",null,"HLGT_0267",null,"SKIN AND SUBCUTANEOUS TISSUE DISORDERS",null,"SKIN AND SUBCUTANEOUS TISSUE DISORDERS",null,"MILD","N","","PROBABLE","NOT RECOVERED/NOT RESOLVED","N","N","N","N","N","N","N","2013-11-22","2013-11-15","2013-12-14",34,63],[380,"CDISCPILOT01","AE","01-704-1266",14,"E16","BLISTER","BLISTERING",null,"BLISTER",null,"HLT_0752",null,"HLGT_0267",null,"SKIN AND SUBCUTANEOUS TISSUE DISORDERS",null,"SKIN AND SUBCUTANEOUS TISSUE DISORDERS",null,"MILD","N","","PROBABLE","RECOVERED/RESOLVED","N","N","N","N","N","N","N","2014-01-03","2013-11-15","2013-12-14",34,63],[381,"CDISCPILOT01","AE","01-704-1266",2,"E10","ERYTHEMA","ERYTHEMA",null,"ERYTHEMA",null,"HLT_0284",null,"HLGT_0192",null,"SKIN AND SUBCUTANEOUS TISSUE DISORDERS",null,"SKIN AND SUBCUTANEOUS TISSUE DISORDERS",null,"MILD","N","","PROBABLE","NOT RECOVERED/NOT RESOLVED","N","N","N","N","N","N","N","2013-10-27","2013-10-17","2013-12-23",5,72],[382,"CDISCPILOT01","AE","01-704-1266",9,"E10","ERYTHEMA","ERYTHEMA",null,"ERYTHEMA",null,"HLT_0284",null,"HLGT_0192",null,"SKIN AND SUBCUTANEOUS TISSUE DISORDERS",null,"SKIN AND SUBCUTANEOUS TISSUE DISORDERS",null,"MODERATE","N","","PROBABLE","NOT RECOVERED/NOT RESOLVED","N","N","N","N","N","N","N","2013-12-06","2013-10-17","2013-12-23",5,72],[383,"CDISCPILOT01","AE","01-704-1266",12,"E10","ERYTHEMA","ERYTHEMA",null,"ERYTHEMA",null,"HLT_0284",null,"HLGT_0192",null,"SKIN AND SUBCUTANEOUS TISSUE DISORDERS",null,"SKIN AND SUBCUTANEOUS TISSUE DISORDERS",null,"MODERATE","N","","PROBABLE","RECOVERED/RESOLVED","N","N","N","N","N","N","N","2014-01-03","2013-10-17","2013-12-23",5,72],[384,"CDISCPILOT01","AE","01-704-1266",11,"E18","ERYTHEMA","REDNESS",null,"ERYTHEMA",null,"HLT_0284",null,"HLGT_0192",null,"SKIN AND SUBCUTANEOUS TISSUE DISORDERS",null,"SKIN AND SUBCUTANEOUS TISSUE DISORDERS",null,"MILD","N","","PROBABLE","NOT RECOVERED/NOT RESOLVED","N","N","N","N","N","N","N","2013-12-06","2013-12-06","2013-12-23",55,72],[385,"CDISCPILOT01","AE","01-704-1266",16,"E18","ERYTHEMA","REDNESS",null,"ERYTHEMA",null,"HLT_0284",null,"HLGT_0192",null,"SKIN AND SUBCUTANEOUS TISSUE DISORDERS",null,"SKIN AND SUBCUTANEOUS TISSUE DISORDERS",null,"MILD","N","","PROBABLE","RECOVERED/RESOLVED","N","N","N","N","N","N","N","2014-01-03","2013-12-06","2013-12-23",55,72],[386,"CDISCPILOT01","AE","01-704-1266",6,"E15","HYPERHIDROSIS","PERSPIRATION EXCESSIVE",null,"HYPERHIDROSIS",null,"HLT_0587",null,"HLGT_0005",null,"SKIN AND SUBCUTANEOUS TISSUE DISORDERS",null,"SKIN AND SUBCUTANEOUS TISSUE DISORDERS",null,"MILD","N","","POSSIBLE","NOT RECOVERED/NOT RESOLVED","N","N","N","N","N","N","N","2013-11-10","2013-11-09","2013-12-04",28,53],[387,"CDISCPILOT01","AE","01-704-1266",10,"E15","HYPERHIDROSIS","PERSPIRATION EXCESSIVE",null,"HYPERHIDROSIS",null,"HLT_0587",null,"HLGT_0005",null,"SKIN AND SUBCUTANEOUS TISSUE DISORDERS",null,"SKIN AND SUBCUTANEOUS TISSUE DISORDERS",null,"MILD","N","","POSSIBLE","RECOVERED/RESOLVED","N","N","N","N","N","N","N","2013-12-06","2013-11-09","2013-12-04",28,53],[388,"CDISCPILOT01","AE","01-704-1266",8,"E17","PRURITUS","ITCHING",null,"PRURITUS",null,"HLT_0778",null,"HLGT_0695",null,"SKIN AND SUBCUTANEOUS TISSUE DISORDERS",null,"SKIN AND SUBCUTANEOUS TISSUE DISORDERS",null,"MILD","N","","PROBABLE","NOT RECOVERED/NOT RESOLVED","N","N","N","N","N","N","N","2013-11-22","2013-11-15","2013-12-23",34,72],[389,"CDISCPILOT01","AE","01-704-1266",15,"E17","PRURITUS","ITCHING",null,"PRURITUS",null,"HLT_0778",null,"HLGT_0695",null,"SKIN AND SUBCUTANEOUS TISSUE DISORDERS",null,"SKIN AND SUBCUTANEOUS TISSUE DISORDERS",null,"MILD","N","","PROBABLE","RECOVERED/RESOLVED","N","N","N","N","N","N","N","2014-01-03","2013-11-15","2013-12-23",34,72],[390,"CDISCPILOT01","AE","01-704-1266",1,"E11","SEASONAL ALLERGY","HAY FEVER",null,"SEASONAL ALLERGY",null,"HLT_0714",null,"HLGT_0782",null,"IMMUNE SYSTEM DISORDERS",null,"IMMUNE SYSTEM DISORDERS",null,"MILD","N","","NONE","NOT RECOVERED/NOT RESOLVED","N","N","N","N","N","N","N","2013-10-11","2013-10-06","",-7,null],[391,"CDISCPILOT01","AE","01-704-1323",4,"E10","OEDEMA","EDEMA",null,"OEDEMA",null,"HLT_0656",null,"HLGT_0036",null,"GENERAL DISORDERS AND ADMINISTRATION SITE CONDITIONS",null,"GENERAL DISORDERS AND ADMINISTRATION SITE CONDITIONS",null,"MILD","N","","PROBABLE","NOT RECOVERED/NOT RESOLVED","N","N","N","N","N","N","N","2013-08-04","2013-08-04","",28,null],[392,"CDISCPILOT01","AE","01-704-1323",3,"E09","PRURITUS","ITCHING",null,"PRURITUS",null,"HLT_0778",null,"HLGT_0695",null,"SKIN AND SUBCUTANEOUS TISSUE DISORDERS",null,"SKIN AND SUBCUTANEOUS TISSUE DISORDERS",null,"MILD","N","","PROBABLE","NOT RECOVERED/NOT RESOLVED","N","N","N","N","N","N","N","2013-08-04","2013-08-04","",28,null],[393,"CDISCPILOT01","AE","01-704-1323",2,"E08","RASH","RASH",null,"RASH",null,"HLT_0762",null,"HLGT_0198",null,"SKIN AND SUBCUTANEOUS TISSUE DISORDERS",null,"SKIN AND SUBCUTANEOUS TISSUE DISORDERS",null,"MILD","N","","PROBABLE","NOT RECOVERED/NOT RESOLVED","N","N","N","N","N","N","N","2013-08-04","2013-08-04","",28,null],[394,"CDISCPILOT01","AE","01-704-1323",1,"E07","VIRAL INFECTION","VIRAL INFECTION",null,"VIRAL INFECTION",null,"HLT_0733",null,"HLGT_0408",null,"INFECTIONS AND INFESTATIONS",null,"INFECTIONS AND INFESTATIONS",null,"MILD","N","","NONE","RECOVERED/RESOLVED","N","N","N","N","N","N","N","2013-08-04","2013-07-30","2013-08-03",23,27],[395,"CDISCPILOT01","AE","01-704-1325",2,"E05","PRURITUS","ITCHING",null,"PRURITUS",null,"HLT_0778",null,"HLGT_0695",null,"SKIN AND SUBCUTANEOUS TISSUE DISORDERS",null,"SKIN AND SUBCUTANEOUS TISSUE DISORDERS",null,"MILD","N","","PROBABLE","NOT RECOVERED/NOT RESOLVED","N","N","N","N","N","N","N","2014-07-16","2014-07-04","",73,null],[396,"CDISCPILOT01","AE","01-704-1325",1,"E04","RASH","RASH",null,"RASH",null,"HLT_0762",null,"HLGT_0198",null,"SKIN AND SUBCUTANEOUS TISSUE DISORDERS",null,"SKIN AND SUBCUTANEOUS TISSUE DISORDERS",null,"MILD","N","","PROBABLE","NOT RECOVERED/NOT RESOLVED","N","N","N","N","N","N","N","2014-06-04","2014-05-23","",31,null],[397,"CDISCPILOT01","AE","01-704-1332",4,"E05","BURNING SENSATION","BURNING SENSATION",null,"BURNING SENSATION",null,"HLT_0775",null,"HLGT_0456",null,"NERVOUS SYSTEM DISORDERS",null,"NERVOUS SYSTEM DISORDERS",null,"MILD","N","","PROBABLE","NOT RECOVERED/NOT RESOLVED","N","N","N","N","N","N","N","2014-02-03","2014-02-03","",57,null],[398,"CDISCPILOT01","AE","01-704-1332",2,"E02","PRURITUS","ITCHING",null,"PRURITUS",null,"HLT_0778",null,"HLGT_0695",null,"SKIN AND SUBCUTANEOUS TISSUE DISORDERS",null,"SKIN AND SUBCUTANEOUS TISSUE DISORDERS",null,"MILD","N","","PROBABLE","NOT RECOVERED/NOT RESOLVED","N","N","N","N","N","N","N","2014-01-20","2014-01-18","2014-02-24",41,78],[399,"CDISCPILOT01","AE","01-704-1332",6,"E02","PRURITUS","ITCHING",null,"PRURITUS",null,"HLT_0778",null,"HLGT_0695",null,"SKIN AND SUBCUTANEOUS TISSUE DISORDERS",null,"SKIN AND SUBCUTANEOUS TISSUE DISORDERS",null,"MILD","N","","PROBABLE","RECOVERED/RESOLVED","N","N","N","N","N","N","N","2014-02-24","2014-01-18","2014-02-24",41,78],[400,"CDISCPILOT01","AE","01-704-1332",1,"E01","RASH","RASH",null,"RASH",null,"HLT_0762",null,"HLGT_0198",null,"SKIN AND SUBCUTANEOUS TISSUE DISORDERS",null,"SKIN AND SUBCUTANEOUS TISSUE DISORDERS",null,"MILD","N","","NONE","NOT RECOVERED/NOT RESOLVED","N","N","N","N","N","N","N","2013-12-23","2013-12-10","2014-02-24",2,78],[401,"CDISCPILOT01","AE","01-704-1332",3,"E01","RASH","RASH",null,"RASH",null,"HLT_0762",null,"HLGT_0198",null,"SKIN AND SUBCUTANEOUS TISSUE DISORDERS",null,"SKIN AND SUBCUTANEOUS TISSUE DISORDERS",null,"MODERATE","N","","NONE","NOT RECOVERED/NOT RESOLVED","N","N","N","N","N","N","N","2014-02-03","2013-12-10","2014-02-24",2,78],[402,"CDISCPILOT01","AE","01-704-1332",5,"E01","RASH","RASH",null,"RASH",null,"HLT_0762",null,"HLGT_0198",null,"SKIN AND SUBCUTANEOUS TISSUE DISORDERS",null,"SKIN AND SUBCUTANEOUS TISSUE DISORDERS",null,"MODERATE","N","","NONE","RECOVERED/RESOLVED","N","N","N","N","N","N","N","2014-02-24","2013-12-10","2014-02-24",2,78],[403,"CDISCPILOT01","AE","01-704-1351",2,"E03","FLATULENCE","GAS",null,"FLATULENCE",null,"HLT_0356",null,"HLGT_0504",null,"GASTROINTESTINAL DISORDERS",null,"GASTROINTESTINAL DISORDERS",null,"MILD","N","","NONE","NOT RECOVERED/NOT RESOLVED","N","N","N","N","N","N","N","2013-11-07","2013-10-27","2014-04-04",16,175],[404,"CDISCPILOT01","AE","01-704-1351",4,"E03","FLATULENCE","GAS",null,"FLATULENCE",null,"HLT_0356",null,"HLGT_0504",null,"GASTROINTESTINAL DISORDERS",null,"GASTROINTESTINAL DISORDERS",null,"MILD","N","","NONE","RECOVERED/RESOLVED","N","N","N","N","N","N","N","2014-04-18","2013-10-27","2014-04-04",16,175],[405,"CDISCPILOT01","AE","01-704-1351",1,"E02","POLLAKIURIA","URINARY FREQUENCY",null,"POLLAKIURIA",null,"HLT_0393",null,"HLGT_0560",null,"RENAL AND URINARY DISORDERS",null,"RENAL AND URINARY DISORDERS",null,"MILD","N","","NONE","NOT RECOVERED/NOT RESOLVED","N","N","N","N","N","N","N","2013-11-07","2013-10-27","2014-04-04",16,175],[406,"CDISCPILOT01","AE","01-704-1351",3,"E02","POLLAKIURIA","URINARY FREQUENCY",null,"POLLAKIURIA",null,"HLT_0393",null,"HLGT_0560",null,"RENAL AND URINARY DISORDERS",null,"RENAL AND URINARY DISORDERS",null,"MILD","N","","NONE","RECOVERED/RESOLVED","N","N","N","N","N","N","N","2014-04-18","2013-10-27","2014-04-04",16,175],[407,"CDISCPILOT01","AE","01-704-1388",1,"E01","HEADACHE","HEADACHE",null,"HEADACHE",null,"HLT_0064",null,"HLGT_0344",null,"NERVOUS SYSTEM DISORDERS",null,"NERVOUS SYSTEM DISORDERS",null,"MODERATE","N","","NONE","NOT RECOVERED/NOT RESOLVED","N","N","N","N","N","N","N","2013-03-27","2012-08-23","",-106,null],[408,"CDISCPILOT01","AE","01-704-1435",1,"E08","PARKINSON'S DISEASE","DISEASE PARKINSON'S",null,"PARKINSON'S DISEASE",null,"HLT_0279",null,"HLGT_0313",null,"NERVOUS SYSTEM DISORDERS",null,"NERVOUS SYSTEM DISORDERS",null,"MILD","N","","NONE","NOT RECOVERED/NOT RESOLVED","N","N","N","N","N","N","N","2013-01-12","2013-01-06","",51,null],[409,"CDISCPILOT01","AE","01-704-1445",1,"E06","COMPLETED SUICIDE","SUICIDE",null,"COMPLETED SUICIDE",null,"HLT_0625",null,"HLGT_0013",null,"PSYCHIATRIC DISORDERS",null,"PSYCHIATRIC DISORDERS",null,"SEVERE","N","","NONE","FATAL","N","N","N","Y","N","N","N","2014-11-01","2014-10-31","2014-10-31",174,174],[410,"CDISCPILOT01","AE","01-705-1031",1,"E02","RASH","RASH",null,"RASH",null,"HLT_0762",null,"HLGT_0198",null,"SKIN AND SUBCUTANEOUS TISSUE DISORDERS",null,"SKIN AND SUBCUTANEOUS TISSUE DISORDERS",null,"MILD","N","","POSSIBLE","NOT RECOVERED/NOT RESOLVED","N","N","N","N","N","N","N","2013-12-25","2013-12-25","",29,null],[411,"CDISCPILOT01","AE","01-705-1059",1,"E02","ERYTHEMA","ERYTHEMA",null,"ERYTHEMA",null,"HLT_0284",null,"HLGT_0192",null,"SKIN AND SUBCUTANEOUS TISSUE DISORDERS",null,"SKIN AND SUBCUTANEOUS TISSUE DISORDERS",null,"MODERATE","N","","PROBABLE","NOT RECOVERED/NOT RESOLVED","N","N","N","N","N","N","N","2013-11-07","2013-11-02","",90,null],[412,"CDISCPILOT01","AE","01-705-1186",1,"E02","HYPERBILIRUBINAEMIA","HYPERBILIRUBINEMIA",null,"HYPERBILIRUBINAEMIA",null,"HLT_0478",null,"HLGT_0087",null,"HEPATOBILIARY DISORDERS",null,"HEPATOBILIARY DISORDERS",null,"MODERATE","N","","REMOTE","NOT RECOVERED/NOT RESOLVED","N","N","N","N","N","N","N","2014-02-07","2014-01-26","",19,null],[413,"CDISCPILOT01","AE","01-705-1199",1,"E06","DYSPEPSIA","PYROSIS",null,"DYSPEPSIA",null,"HLT_0244",null,"HLGT_0716",null,"GASTROINTESTINAL DISORDERS",null,"GASTROINTESTINAL DISORDERS",null,"MODERATE","N","","POSSIBLE","NOT RECOVERED/NOT RESOLVED","N","N","N","N","N","N","N","2013-09-29","2013-09-17","2013-09-29",2,14],[414,"CDISCPILOT01","AE","01-705-1199",2,"E06","DYSPEPSIA","PYROSIS",null,"DYSPEPSIA",null,"HLT_0244",null,"HLGT_0716",null,"GASTROINTESTINAL DISORDERS",null,"GASTROINTESTINAL DISORDERS",null,"MODERATE","N","","POSSIBLE","RECOVERED/RESOLVED","N","N","N","N","N","N","N","2013-09-29","2013-09-17","2013-09-29",2,14],[415,"CDISCPILOT01","AE","01-705-1280",1,"E01","PRURITUS","PRURITUS",null,"PRURITUS",null,"HLT_0778",null,"HLGT_0695",null,"SKIN AND SUBCUTANEOUS TISSUE DISORDERS",null,"SKIN AND SUBCUTANEOUS TISSUE DISORDERS",null,"MILD","N","","POSSIBLE","NOT RECOVERED/NOT RESOLVED","N","N","N","N","N","N","N","2014-05-16","2014-04-20","",94,null],[416,"CDISCPILOT01","AE","01-705-1281",2,"E05","EXCORIATION","ABRASIONS",null,"EXCORIATION",null,"HLT_0738",null,"HLGT_0511",null,"INJURY, POISONING AND PROCEDURAL COMPLICATIONS",null,"INJURY, POISONING AND PROCEDURAL COMPLICATIONS",null,"MODERATE","N","","PROBABLE","NOT RECOVERED/NOT RESOLVED","N","N","N","N","N","N","N","2014-02-18","2014-01-30","",64,null],[417,"CDISCPILOT01","AE","01-705-1281",1,"E04","PRURITUS","PRURITUS",null,"PRURITUS",null,"HLT_0778",null,"HLGT_0695",null,"SKIN AND SUBCUTANEOUS TISSUE DISORDERS",null,"SKIN AND SUBCUTANEOUS TISSUE DISORDERS",null,"MILD","N","","POSSIBLE","NOT RECOVERED/NOT RESOLVED","N","N","N","N","N","N","N","2014-02-18","2014-01-30","",64,null],[418,"CDISCPILOT01","AE","01-705-1281",3,"E04","PRURITUS","PRURITUS",null,"PRURITUS",null,"HLT_0778",null,"HLGT_0695",null,"SKIN AND SUBCUTANEOUS TISSUE DISORDERS",null,"SKIN AND SUBCUTANEOUS TISSUE DISORDERS",null,"MODERATE","N","","POSSIBLE","NOT RECOVERED/NOT RESOLVED","N","N","N","N","N","N","N","2014-03-17","2014-01-30","",64,null],[419,"CDISCPILOT01","AE","01-705-1292",2,"E02","ERYTHEMA","ERYTHEMA",null,"ERYTHEMA",null,"HLT_0284",null,"HLGT_0192",null,"SKIN AND SUBCUTANEOUS TISSUE DISORDERS",null,"SKIN AND SUBCUTANEOUS TISSUE DISORDERS",null,"MODERATE","N","","PROBABLE","NOT RECOVERED/NOT RESOLVED","N","N","N","N","N","N","N","2014-03-03","2014-02-13","",123,null],[420,"CDISCPILOT01","AE","01-705-1292",1,"E01","PRURITUS","ITCHY",null,"PRURITUS",null,"HLT_0778",null,"HLGT_0695",null,"SKIN AND SUBCUTANEOUS TISSUE DISORDERS",null,"SKIN AND SUBCUTANEOUS TISSUE DISORDERS",null,"MILD","N","","PROBABLE","NOT RECOVERED/NOT RESOLVED","N","N","N","N","N","N","N","2013-10-29","2013-10-28","",15,null],[421,"CDISCPILOT01","AE","01-705-1303",1,"E02","PRURITUS","PRURITUS",null,"PRURITUS",null,"HLT_0778",null,"HLGT_0695",null,"SKIN AND SUBCUTANEOUS TISSUE DISORDERS",null,"SKIN AND SUBCUTANEOUS TISSUE DISORDERS",null,"MILD","N","","POSSIBLE","NOT RECOVERED/NOT RESOLVED","N","N","N","N","N","N","N","2014-02-10","2014-02-05","2014-03-03",52,78],[422,"CDISCPILOT01","AE","01-705-1303",3,"E02","PRURITUS","PRURITUS",null,"PRURITUS",null,"HLT_0778",null,"HLGT_0695",null,"SKIN AND SUBCUTANEOUS TISSUE DISORDERS",null,"SKIN AND SUBCUTANEOUS TISSUE DISORDERS",null,"MILD","N","","POSSIBLE","RECOVERED/RESOLVED","N","N","N","N","N","N","N","2014-04-07","2014-02-05","2014-03-03",52,78],[423,"CDISCPILOT01","AE","01-705-1303",2,"E03","RASH","RASH",null,"RASH",null,"HLT_0762",null,"HLGT_0198",null,"SKIN AND SUBCUTANEOUS TISSUE DISORDERS",null,"SKIN AND SUBCUTANEOUS TISSUE DISORDERS",null,"MILD","N","","POSSIBLE","NOT RECOVERED/NOT RESOLVED","N","N","N","N","N","N","N","2014-02-10","2014-02-05","2014-03-03",52,78],[424,"CDISCPILOT01","AE","01-705-1303",4,"E03","RASH","RASH",null,"RASH",null,"HLT_0762",null,"HLGT_0198",null,"SKIN AND SUBCUTANEOUS TISSUE DISORDERS",null,"SKIN AND SUBCUTANEOUS TISSUE DISORDERS",null,"MODERATE","N","","POSSIBLE","RECOVERED/RESOLVED","N","N","N","N","N","N","N","2014-04-07","2014-02-05","2014-03-03",52,78],[425,"CDISCPILOT01","AE","01-705-1310",1,"E02","RASH PRURITIC","PRURITIC RASH",null,"RASH PRURITIC",null,"HLT_0127",null,"HLGT_0753",null,"SKIN AND SUBCUTANEOUS TISSUE DISORDERS",null,"SKIN AND SUBCUTANEOUS TISSUE DISORDERS",null,"MODERATE","N","","POSSIBLE","NOT RECOVERED/NOT RESOLVED","N","N","N","N","N","N","N","2013-11-22","2013-11-14","",13,null],[426,"CDISCPILOT01","AE","01-705-1310",2,"E03","WOUND HAEMORRHAGE","WOUND BLEEDING",null,"WOUND HAEMORRHAGE",null,"HLT_0154",null,"HLGT_0162",null,"VASCULAR DISORDERS",null,"VASCULAR DISORDERS",null,"MODERATE","N","","POSSIBLE","NOT RECOVERED/NOT RESOLVED","N","N","N","N","N","N","N","2014-01-23","2014-01-09","",69,null],[427,"CDISCPILOT01","AE","01-705-1349",4,"E06","ELECTROCARDIOGRAM ST SEGMENT DEPRESSION","ST SEGMENT DEPRESSED",null,"ELECTROCARDIOGRAM ST SEGMENT DEPRESSION",null,"HLT_0610",null,"HLGT_0220",null,"INVESTIGATIONS",null,"INVESTIGATIONS",null,"MILD","N","","REMOTE","NOT RECOVERED/NOT RESOLVED","N","N","N","N","N","N","N","2013-08-25","2013-08-25","",169,null],[428,"CDISCPILOT01","AE","01-705-1349",1,"E03","NAUSEA","NAUSEA",null,"NAUSEA",null,"HLT_0742",null,"HLGT_0326",null,"GASTROINTESTINAL DISORDERS",null,"GASTROINTESTINAL DISORDERS",null,"MILD","N","","REMOTE","RECOVERED/RESOLVED","N","N","N","N","N","N","N","2013-04-17","2013-04-08","2013-04-08",30,30],[429,"CDISCPILOT01","AE","01-705-1349",3,"E05","VENTRICULAR HYPERTROPHY","LEFT VENTRICULAR HYPERTROPHY",null,"VENTRICULAR HYPERTROPHY",null,"HLT_0104",null,"HLGT_0259",null,"CARDIAC DISORDERS",null,"CARDIAC DISORDERS",null,"MILD","N","","REMOTE","NOT RECOVERED/NOT RESOLVED","N","N","N","N","N","N","N","2013-08-25","2013-08-25","",169,null],[430,"CDISCPILOT01","AE","01-705-1349",2,"E04","VOMITING","VOMITING",null,"VOMITING",null,"HLT_0016",null,"HLGT_0350",null,"GASTROINTESTINAL DISORDERS",null,"GASTROINTESTINAL DISORDERS",null,"MILD","N","","REMOTE","RECOVERED/RESOLVED","N","N","N","N","N","N","N","2013-04-17","2013-04-11","2013-04-11",33,33],[431,"CDISCPILOT01","AE","01-705-1393",1,"E01","ABDOMINAL PAIN","ABDOMINAL CRAMPS",null,"ABDOMINAL PAIN",null,"HLT_0217",null,"HLGT_0419",null,"GASTROINTESTINAL DISORDERS",null,"GASTROINTESTINAL DISORDERS",null,"MILD","N","","REMOTE","RECOVERED/RESOLVED","N","N","N","N","N","N","N","2012-09-27","2012-09-19","2012-09-24",13,18],[432,"CDISCPILOT01","AE","01-705-1393",3,"E05","COLON CANCER","COLON CANCER",null,"COLON CANCER",null,"HLT_0597",null,"HLGT_0339",null,"NEOPLASMS BENIGN, MALIGNANT AND UNSPECIFIED (INCL CYSTS AND POLYPS)",null,"NEOPLASMS BENIGN, MALIGNANT AND UNSPECIFIED (INCL CYSTS AND POLYPS)",null,"SEVERE","N","","NONE","RECOVERED/RESOLVED","Y","N","N","N","Y","N","N","2013-02-20","2013-01-21","2013-01-24",137,140],[433,"CDISCPILOT01","AE","01-705-1393",2,"E04","PRURITUS","PRURITUS",null,"PRURITUS",null,"HLT_0778",null,"HLGT_0695",null,"SKIN AND SUBCUTANEOUS TISSUE DISORDERS",null,"SKIN AND SUBCUTANEOUS TISSUE DISORDERS",null,"MILD","N","","PROBABLE","NOT RECOVERED/NOT RESOLVED","N","N","N","N","N","N","N","2012-12-05","2011-12-05","2013-02-20",-277,167],[434,"CDISCPILOT01","AE","01-705-1393",4,"E04","PRURITUS","PRURITUS",null,"PRURITUS",null,"HLT_0778",null,"HLGT_0695",null,"SKIN AND SUBCUTANEOUS TISSUE DISORDERS",null,"SKIN AND SUBCUTANEOUS TISSUE DISORDERS",null,"MILD","N","","PROBABLE","RECOVERED/RESOLVED","N","N","N","N","N","N","N","2013-04-25","2011-12-05","2013-02-20",-277,167],[435,"CDISCPILOT01","AE","01-705-1431",2,"E04","ANXIETY","FEELING ANXIOUS",null,"ANXIETY",null,"HLT_0559",null,"HLGT_0570",null,"PSYCHIATRIC DISORDERS",null,"PSYCHIATRIC DISORDERS",null,"MILD","N","","POSSIBLE","RECOVERED/RESOLVED","N","N","N","N","N","N","N","2013-07-07","2013-07-04","2013-07-06",12,14],[436,"CDISCPILOT01","AE","01-705-1431",1,"E05","RASH ERYTHEMATOUS","ERYTHEMATOUS RASH",null,"RASH ERYTHEMATOUS",null,"HLT_0336",null,"HLGT_0701",null,"SKIN AND SUBCUTANEOUS TISSUE DISORDERS",null,"SKIN AND SUBCUTANEOUS TISSUE DISORDERS",null,"MILD","N","","PROBABLE","NOT RECOVERED/NOT RESOLVED","N","N","N","N","N","N","N","2013-06-23","2013-06-22","",-1,null],[437,"CDISCPILOT01","AE","01-706-1041",1,"E02","ANXIETY","ANXIETY ATTACK",null,"ANXIETY",null,"HLT_0559",null,"HLGT_0570",null,"PSYCHIATRIC DISORDERS",null,"PSYCHIATRIC DISORDERS",null,"MODERATE","N","","REMOTE","NOT RECOVERED/NOT RESOLVED","N","N","N","N","N","N","N","2014-01-14","2012-05","",null,null],[438,"CDISCPILOT01","AE","01-706-1041",7,"E02","ANXIETY","ANXIETY ATTACK",null,"ANXIETY",null,"HLT_0559",null,"HLGT_0570",null,"PSYCHIATRIC DISORDERS",null,"PSYCHIATRIC DISORDERS",null,"MILD","N","","REMOTE","NOT RECOVERED/NOT RESOLVED","N","N","N","N","N","N","N","2014-05-06","2012-05","",null,null],[439,"CDISCPILOT01","AE","01-706-1041",2,"E01","DIARRHOEA","DIARRHEA",null,"DIARRHOEA",null,"HLT_0148",null,"HLGT_0588",null,"GASTROINTESTINAL DISORDERS",null,"GASTROINTESTINAL DISORDERS",null,"MILD","N","","REMOTE","RECOVERED/RESOLVED","N","N","N","N","N","N","N","2014-01-14","2014-01-07","2014-01-08",8,9],[440,"CDISCPILOT01","AE","01-706-1041",3,"E07","EXCORIATION","ABRASIONS",null,"EXCORIATION",null,"HLT_0738",null,"HLGT_0511",null,"INJURY, POISONING AND PROCEDURAL COMPLICATIONS",null,"INJURY, POISONING AND PROCEDURAL COMPLICATIONS",null,"MILD","N","","NONE","NOT RECOVERED/NOT RESOLVED","N","N","N","N","N","N","N","2014-01-14","2014-01-14","2014-01-28",15,29],[441,"CDISCPILOT01","AE","01-706-1041",5,"E07","EXCORIATION","ABRASIONS",null,"EXCORIATION",null,"HLT_0738",null,"HLGT_0511",null,"INJURY, POISONING AND PROCEDURAL COMPLICATIONS",null,"INJURY, POISONING AND PROCEDURAL COMPLICATIONS",null,"MILD","N","","NONE","RECOVERED/RESOLVED","N","N","N","N","N","N","N","2014-01-30","2014-01-14","2014-01-28",15,29],[442,"CDISCPILOT01","AE","01-706-1041",4,"E03","IRRITABILITY","IRRITABILITY",null,"IRRITABILITY",null,"HLT_0627",null,"HLGT_0461",null,"PSYCHIATRIC DISORDERS",null,"PSYCHIATRIC DISORDERS",null,"MODERATE","N","","POSSIBLE","NOT RECOVERED/NOT RESOLVED","N","N","N","N","N","N","N","2014-01-28","2014-01-15","2014-07-29",16,211],[443,"CDISCPILOT01","AE","01-706-1041",8,"E03","IRRITABILITY","IRRITABILITY",null,"IRRITABILITY",null,"HLT_0627",null,"HLGT_0461",null,"PSYCHIATRIC DISORDERS",null,"PSYCHIATRIC DISORDERS",null,"MODERATE","N","","POSSIBLE","RECOVERED/RESOLVED","N","N","N","N","N","N","N","2014-07-29","2014-01-15","2014-07-29",16,211],[444,"CDISCPILOT01","AE","01-706-1041",6,"E08","PRURITUS","ITCHING",null,"PRURITUS",null,"HLT_0778",null,"HLGT_0695",null,"SKIN AND SUBCUTANEOUS TISSUE DISORDERS",null,"SKIN AND SUBCUTANEOUS TISSUE DISORDERS",null,"MILD","N","","POSSIBLE","NOT RECOVERED/NOT RESOLVED","N","N","N","N","N","N","N","2014-03-04","2014-03-04","2014-07-29",64,211],[445,"CDISCPILOT01","AE","01-706-1041",9,"E08","PRURITUS","ITCHING",null,"PRURITUS",null,"HLT_0778",null,"HLGT_0695",null,"SKIN AND SUBCUTANEOUS TISSUE DISORDERS",null,"SKIN AND SUBCUTANEOUS TISSUE DISORDERS",null,"MILD","N","","POSSIBLE","RECOVERED/RESOLVED","N","N","N","N","N","N","N","2014-07-29","2014-03-04","2014-07-29",64,211],[446,"CDISCPILOT01","AE","01-706-1049",1,"E01","SYNCOPE","FAINTING",null,"SYNCOPE",null,"HLT_0440",null,"HLGT_0310",null,"NERVOUS SYSTEM DISORDERS",null,"NERVOUS SYSTEM DISORDERS",null,"MODERATE","N","","POSSIBLE","RECOVERED/RESOLVED","N","N","N","N","N","N","N","2013-06-11","2013-06-03","2013-06-03",21,21],[447,"CDISCPILOT01","AE","01-706-1049",2,"E02","SYNCOPE","SYNCOPAL ATTACK",null,"SYNCOPE",null,"HLT_0440",null,"HLGT_0310",null,"NERVOUS SYSTEM DISORDERS",null,"NERVOUS SYSTEM DISORDERS",null,"SEVERE","N","","PROBABLE","RECOVERED/RESOLVED","N","N","N","N","Y","N","N","2013-06-25","2013-06-18","2013-06-18",36,36],[448,"CDISCPILOT01","AE","01-706-1384",1,"E03","ERYTHEMA","ERYTHEMA",null,"ERYTHEMA",null,"HLT_0284",null,"HLGT_0192",null,"SKIN AND SUBCUTANEOUS TISSUE DISORDERS",null,"SKIN AND SUBCUTANEOUS TISSUE DISORDERS",null,"MODERATE","N","","NONE","NOT RECOVERED/NOT RESOLVED","N","N","N","N","N","N","N","2012-09-15","2012-09-15","2012-09-29",1,15],[449,"CDISCPILOT01","AE","01-706-1384",6,"E03","ERYTHEMA","ERYTHEMA",null,"ERYTHEMA",null,"HLT_0284",null,"HLGT_0192",null,"SKIN AND SUBCUTANEOUS TISSUE DISORDERS",null,"SKIN AND SUBCUTANEOUS TISSUE DISORDERS",null,"MODERATE","N","","NONE","RECOVERED/RESOLVED","N","N","N","N","N","N","N","2013-06-22","2012-09-15","2012-09-29",1,15],[450,"CDISCPILOT01","AE","01-706-1384",4,"E01","ERYTHEMA","ERYTHEMA",null,"ERYTHEMA",null,"HLT_0284",null,"HLGT_0192",null,"SKIN AND SUBCUTANEOUS TISSUE DISORDERS",null,"SKIN AND SUBCUTANEOUS TISSUE DISORDERS",null,"MODERATE","N","","PROBABLE","NOT RECOVERED/NOT RESOLVED","N","N","N","N","N","N","N","2012-09-29","2012-09-23","2012-09-29",9,15],[451,"CDISCPILOT01","AE","01-706-1384",9,"E01","ERYTHEMA","ERYTHEMA",null,"ERYTHEMA",null,"HLT_0284",null,"HLGT_0192",null,"SKIN AND SUBCUTANEOUS TISSUE DISORDERS",null,"SKIN AND SUBCUTANEOUS TISSUE DISORDERS",null,"MODERATE","N","","PROBABLE","RECOVERED/RESOLVED","N","N","N","N","N","N","N","2013-06-22","2012-09-23","2012-09-29",9,15],[452,"CDISCPILOT01","AE","01-706-1384",3,"E05","EXCORIATION","ABRASIONS",null,"EXCORIATION",null,"HLT_0738",null,"HLGT_0511",null,"INJURY, POISONING AND PROCEDURAL COMPLICATIONS",null,"INJURY, POISONING AND PROCEDURAL COMPLICATIONS",null,"MODERATE","N","","NONE","NOT RECOVERED/NOT RESOLVED","N","N","N","N","N","N","N","2012-09-15","2012-09-15","2012-09-29",1,15],[453,"CDISCPILOT01","AE","01-706-1384",8,"E05","EXCORIATION","ABRASIONS",null,"EXCORIATION",null,"HLT_0738",null,"HLGT_0511",null,"INJURY, POISONING AND PROCEDURAL COMPLICATIONS",null,"INJURY, POISONING AND PROCEDURAL COMPLICATIONS",null,"MODERATE","N","","NONE","RECOVERED/RESOLVED","N","N","N","N","N","N","N","2013-06-22","2012-09-15","2012-09-29",1,15],[454,"CDISCPILOT01","AE","01-706-1384",2,"E04","PRURITUS","PRURITIS",null,"PRURITUS",null,"HLT_0778",null,"HLGT_0695",null,"SKIN AND SUBCUTANEOUS TISSUE DISORDERS",null,"SKIN AND SUBCUTANEOUS TISSUE DISORDERS",null,"MODERATE","N","","NONE","NOT RECOVERED/NOT RESOLVED","N","N","N","N","N","N","N","2012-09-15","2012-09-15","2012-09-29",1,15],[455,"CDISCPILOT01","AE","01-706-1384",7,"E04","PRURITUS","PRURITIS",null,"PRURITUS",null,"HLT_0778",null,"HLGT_0695",null,"SKIN AND SUBCUTANEOUS TISSUE DISORDERS",null,"SKIN AND SUBCUTANEOUS TISSUE DISORDERS",null,"MODERATE","N","","NONE","RECOVERED/RESOLVED","N","N","N","N","N","N","N","2013-06-22","2012-09-15","2012-09-29",1,15],[456,"CDISCPILOT01","AE","01-706-1384",5,"E06","PRURITUS","PRURITIS",null,"PRURITUS",null,"HLT_0778",null,"HLGT_0695",null,"SKIN AND SUBCUTANEOUS TISSUE DISORDERS",null,"SKIN AND SUBCUTANEOUS TISSUE DISORDERS",null,"MODERATE","N","","PROBABLE","NOT RECOVERED/NOT RESOLVED","N","N","N","N","N","N","N","2012-09-29","2012-09-23","2012-09-29",9,15],[457,"CDISCPILOT01","AE","01-706-1384",10,"E06","PRURITUS","PRURITIS",null,"PRURITUS",null,"HLT_0778",null,"HLGT_0695",null,"SKIN AND SUBCUTANEOUS TISSUE DISORDERS",null,"SKIN AND SUBCUTANEOUS TISSUE DISORDERS",null,"MODERATE","N","","PROBABLE","RECOVERED/RESOLVED","N","N","N","N","N","N","N","2013-06-22","2012-09-23","2012-09-29",9,15],[458,"CDISCPILOT01","AE","01-707-1206",2,"E03","BLOOD CREATINE PHOSPHOKINASE INCREASED","CPK INCREASE",null,"BLOOD CREATINE PHOSPHOKINASE INCREASED",null,"HLT_0404",null,"HLGT_0008",null,"INVESTIGATIONS",null,"INVESTIGATIONS",null,"MODERATE","N","","POSSIBLE","NOT RECOVERED/NOT RESOLVED","N","N","N","N","N","N","N","2013-11-27","2013-11-26","2013-12-09",30,43],[459,"CDISCPILOT01","AE","01-707-1206",4,"E03","BLOOD CREATINE PHOSPHOKINASE INCREASED","CPK INCREASE",null,"BLOOD CREATINE PHOSPHOKINASE INCREASED",null,"HLT_0404",null,"HLGT_0008",null,"INVESTIGATIONS",null,"INVESTIGATIONS",null,"MODERATE","N","","POSSIBLE","RECOVERED/RESOLVED","N","N","N","N","N","N","N","2013-12-23","2013-11-26","2013-12-09",30,43],[460,"CDISCPILOT01","AE","01-707-1206",7,"E06","CONJUNCTIVITIS","CONJUNCTIVITIS",null,"CONJUNCTIVITIS",null,"HLT_0584",null,"HLGT_0335",null,"EYE DISORDERS",null,"EYE DISORDERS",null,"MODERATE","N","","REMOTE","NOT RECOVERED/NOT RESOLVED","N","N","N","N","N","N","N","2014-02-16","2014-02-08","2014-02-22",104,118],[461,"CDISCPILOT01","AE","01-707-1206",8,"E06","CONJUNCTIVITIS","CONJUNCTIVITIS",null,"CONJUNCTIVITIS",null,"HLT_0584",null,"HLGT_0335",null,"EYE DISORDERS",null,"EYE DISORDERS",null,"MODERATE","N","","REMOTE","RECOVERED/RESOLVED","N","N","N","N","N","N","N","2014-03-16","2014-02-08","2014-02-22",104,118],[462,"CDISCPILOT01","AE","01-707-1206",3,"E05","POSTNASAL DRIP","POSTNASAL DRIP",null,"POSTNASAL DRIP",null,"HLT_0172",null,"HLGT_0032",null,"RESPIRATORY, THORACIC AND MEDIASTINAL DISORDERS",null,"RESPIRATORY, THORACIC AND MEDIASTINAL DISORDERS",null,"MILD","N","","NONE","NOT RECOVERED/NOT RESOLVED","N","N","N","N","N","N","N","2013-12-09","2013-12-03","2013-12-10",37,44],[463,"CDISCPILOT01","AE","01-707-1206",5,"E05","POSTNASAL DRIP","POSTNASAL DRIP",null,"POSTNASAL DRIP",null,"HLT_0172",null,"HLGT_0032",null,"RESPIRATORY, THORACIC AND MEDIASTINAL DISORDERS",null,"RESPIRATORY, THORACIC AND MEDIASTINAL DISORDERS",null,"MILD","N","","NONE","RECOVERED/RESOLVED","N","N","N","N","N","N","N","2013-12-23","2013-12-03","2013-12-10",37,44],[464,"CDISCPILOT01","AE","01-707-1206",1,"E04","SINUS ARRHYTHMIA","SINUS ARRHYTHMIA",null,"SINUS ARRHYTHMIA",null,"HLT_0094",null,"HLGT_0630",null,"CARDIAC DISORDERS",null,"CARDIAC DISORDERS",null,"MILD","N","","POSSIBLE","NOT RECOVERED/NOT RESOLVED","N","N","N","N","N","N","N","2013-11-25","2013-11-25","2013-12-23",29,57],[465,"CDISCPILOT01","AE","01-707-1206",6,"E04","SINUS ARRHYTHMIA","SINUS ARRHYTHMIA",null,"SINUS ARRHYTHMIA",null,"HLT_0094",null,"HLGT_0630",null,"CARDIAC DISORDERS",null,"CARDIAC DISORDERS",null,"MILD","N","","POSSIBLE","RECOVERED/RESOLVED","N","N","N","N","N","N","N","2014-01-19","2013-11-25","2013-12-23",29,57],[466,"CDISCPILOT01","AE","01-708-1019",5,"E06","DIZZINESS","DIZZINESS",null,"DIZZINESS",null,"HLT_0619",null,"HLGT_0751",null,"NERVOUS SYSTEM DISORDERS",null,"NERVOUS SYSTEM DISORDERS",null,"MILD","N","","POSSIBLE","RECOVERED/RESOLVED","N","N","N","N","N","N","N","2014-01-23","2014-01-01","2014-01-01",13,13],[467,"CDISCPILOT01","AE","01-708-1019",1,"E02","HEADACHE","FRONTAL HEADACHE",null,"HEADACHE",null,"HLT_0064",null,"HLGT_0344",null,"NERVOUS SYSTEM DISORDERS",null,"NERVOUS SYSTEM DISORDERS",null,"SEVERE","N","","POSSIBLE","RECOVERED/RESOLVED","N","N","N","N","N","N","N","2014-01-23","2013-12-31","2013-12-31",12,12],[468,"CDISCPILOT01","AE","01-708-1019",2,"E03","STUPOR","STUPOR",null,"STUPOR",null,"HLT_0595",null,"HLGT_0513",null,"NERVOUS SYSTEM DISORDERS",null,"NERVOUS SYSTEM DISORDERS",null,"SEVERE","N","","POSSIBLE","RECOVERED/RESOLVED","N","N","N","N","N","N","N","2014-01-23","2014-01-01","2014-01-01",13,13],[469,"CDISCPILOT01","AE","01-708-1019",3,"E04","TRANSIENT ISCHAEMIC ATTACK","TRANSIENT ISCHEMIC ATTACKS",null,"TRANSIENT ISCHAEMIC ATTACK",null,"HLT_0041",null,"HLGT_0433",null,"NERVOUS SYSTEM DISORDERS",null,"NERVOUS SYSTEM DISORDERS",null,"SEVERE","N","","POSSIBLE","RECOVERED/RESOLVED","N","N","N","N","N","N","N","2014-01-23","2014-01-01","2014-01-01",13,13],[470,"CDISCPILOT01","AE","01-708-1019",4,"E05","VISION BLURRED","BLURRED VISION",null,"VISION BLURRED",null,"HLT_0120",null,"HLGT_0598",null,"EYE DISORDERS",null,"EYE DISORDERS",null,"MILD","N","","POSSIBLE","RECOVERED/RESOLVED","N","N","N","N","N","N","N","2014-01-23","2014-01-01","2014-01-01",13,13],[471,"CDISCPILOT01","AE","01-708-1032",1,"E05","APPLICATION SITE VESICLES","APPLICATION SITE BLISTER",null,"APPLICATION SITE VESICLES",null,"HLT_0180",null,"HLGT_0576",null,"GENERAL DISORDERS AND ADMINISTRATION SITE CONDITIONS",null,"GENERAL DISORDERS AND ADMINISTRATION SITE CONDITIONS",null,"MODERATE","N","","PROBABLE","RECOVERED/RESOLVED","N","N","N","N","N","N","N","2013-03-09","2013-02-26","2013-03-09",18,29],[472,"CDISCPILOT01","AE","01-708-1084",1,"E02","DIZZINESS","DIZZINESS",null,"DIZZINESS",null,"HLT_0619",null,"HLGT_0751",null,"NERVOUS SYSTEM DISORDERS",null,"NERVOUS SYSTEM DISORDERS",null,"MILD","N","","POSSIBLE","NOT RECOVERED/NOT RESOLVED","N","N","N","N","N","N","N","2013-05-23","2013-05-23","2013-05-23",15,15],[473,"CDISCPILOT01","AE","01-708-1084",2,"E02","DIZZINESS","DIZZINESS",null,"DIZZINESS",null,"HLT_0619",null,"HLGT_0751",null,"NERVOUS SYSTEM DISORDERS",null,"NERVOUS SYSTEM DISORDERS",null,"MILD","N","","POSSIBLE","RECOVERED/RESOLVED","N","N","N","N","N","N","N","2013-06-09","2013-05-23","2013-05-23",15,15],[474,"CDISCPILOT01","AE","01-708-1084",3,"E07","MYOCARDIAL INFARCTION","MYOCARDIAL INFARCTION",null,"MYOCARDIAL INFARCTION",null,"HLT_0649",null,"HLGT_0688",null,"CARDIAC DISORDERS",null,"CARDIAC DISORDERS",null,"MILD","N","","REMOTE","NOT RECOVERED/NOT RESOLVED","N","N","N","N","N","N","N","2013-06-09","2013-06-09","2013-06-09",32,32],[475,"CDISCPILOT01","AE","01-708-1084",4,"E07","MYOCARDIAL INFARCTION","MYOCARDIAL INFARCTION",null,"MYOCARDIAL INFARCTION",null,"HLT_0649",null,"HLGT_0688",null,"CARDIAC DISORDERS",null,"CARDIAC DISORDERS",null,"MILD","N","","REMOTE","RECOVERED/RESOLVED","N","N","N","N","N","N","N","2013-06-11","2013-06-09","2013-06-09",32,32],[476,"CDISCPILOT01","AE","01-708-1084",5,"E06","SINUS BRADYCARDIA","SINUS BRADYCARDIA",null,"SINUS BRADYCARDIA",null,"HLT_0644",null,"HLGT_0500",null,"CARDIAC DISORDERS",null,"CARDIAC DISORDERS",null,"MILD","N","","REMOTE","NOT RECOVERED/NOT RESOLVED","N","N","N","N","N","N","N","2013-06-23","2013-06-23","2013-06-23",46,46],[477,"CDISCPILOT01","AE","01-708-1084",6,"E06","SINUS BRADYCARDIA","SINUS BRADYCARDIA",null,"SINUS BRADYCARDIA",null,"HLT_0644",null,"HLGT_0500",null,"CARDIAC DISORDERS",null,"CARDIAC DISORDERS",null,"MILD","N","","REMOTE","RECOVERED/RESOLVED","N","N","N","N","N","N","N","2013-07-07","2013-06-23","2013-06-23",46,46],[478,"CDISCPILOT01","AE","01-708-1087",3,"E03","DIZZINESS","DIZZINESS",null,"DIZZINESS",null,"HLT_0619",null,"HLGT_0751",null,"NERVOUS SYSTEM DISORDERS",null,"NERVOUS SYSTEM DISORDERS",null,"MILD","N","","POSSIBLE","RECOVERED/RESOLVED","N","N","N","N","N","N","N","2013-02-16","2013-02-04","2013-02-08",106,110],[479,"CDISCPILOT01","AE","01-708-1087",4,"E02","HEADACHE","HEADACHE",null,"HEADACHE",null,"HLT_0064",null,"HLGT_0344",null,"NERVOUS SYSTEM DISORDERS",null,"NERVOUS SYSTEM DISORDERS",null,"MILD","N","","NONE","NOT RECOVERED/NOT RESOLVED","N","N","N","N","N","N","N","2013-02-16","2013-02-16","",118,null],[480,"CDISCPILOT01","AE","01-708-1087",1,"E05","HEART RATE IRREGULAR","HEARTBEATS IRREGULAR",null,"HEART RATE IRREGULAR",null,"HLT_0765",null,"HLGT_0140",null,"INVESTIGATIONS",null,"INVESTIGATIONS",null,"MILD","N","","POSSIBLE","NOT RECOVERED/NOT RESOLVED","N","N","N","N","N","N","N","2013-01-19","2013-01-19","2013-01-19",90,90],[481,"CDISCPILOT01","AE","01-708-1087",2,"E05","HEART RATE IRREGULAR","HEARTBEATS IRREGULAR",null,"HEART RATE IRREGULAR",null,"HLT_0765",null,"HLGT_0140",null,"INVESTIGATIONS",null,"INVESTIGATIONS",null,"MILD","N","","POSSIBLE","RECOVERED/RESOLVED","N","N","N","N","N","N","N","2013-02-16","2013-01-19","2013-01-19",90,90],[482,"CDISCPILOT01","AE","01-708-1087",5,"E06","HEART RATE IRREGULAR","HEARTBEATS IRREGULAR",null,"HEART RATE IRREGULAR",null,"HLT_0765",null,"HLGT_0140",null,"INVESTIGATIONS",null,"INVESTIGATIONS",null,"MILD","N","","POSSIBLE","NOT RECOVERED/NOT RESOLVED","N","N","N","N","N","N","N","2013-03-16","2013-03-16","2013-03-16",146,146],[483,"CDISCPILOT01","AE","01-708-1087",6,"E06","HEART RATE IRREGULAR","HEARTBEATS IRREGULAR",null,"HEART RATE IRREGULAR",null,"HLT_0765",null,"HLGT_0140",null,"INVESTIGATIONS",null,"INVESTIGATIONS",null,"MILD","N","","POSSIBLE","RECOVERED/RESOLVED","N","N","N","N","N","N","N","2013-04-10","2013-03-16","2013-03-16",146,146],[484,"CDISCPILOT01","AE","01-708-1158",1,"E05","AGITATION","AGITATION",null,"AGITATION",null,"HLT_0140",null,"HLGT_0170",null,"PSYCHIATRIC DISORDERS",null,"PSYCHIATRIC DISORDERS",null,"MILD","N","","REMOTE","NOT RECOVERED/NOT RESOLVED","N","N","N","N","N","N","N","2014-02-26","2014-02-25","",18,null],[485,"CDISCPILOT01","AE","01-708-1158",2,"E07","ERYTHEMA","ERYTHEMA",null,"ERYTHEMA",null,"HLT_0284",null,"HLGT_0192",null,"SKIN AND SUBCUTANEOUS TISSUE DISORDERS",null,"SKIN AND SUBCUTANEOUS TISSUE DISORDERS",null,"MILD","N","","PROBABLE","RECOVERED/RESOLVED","N","N","N","N","N","N","N","2014-03-22","2014-03-22","2014-03-22",43,43],[486,"CDISCPILOT01","AE","01-708-1178",9,"E13","ALCOHOL USE","ALCOHOL USE",null,"ALCOHOL USE",null,"HLT_0138",null,"HLGT_0182",null,"SOCIAL CIRCUMSTANCES",null,"SOCIAL CIRCUMSTANCES",null,"MILD","N","","NONE","RECOVERED/RESOLVED","N","N","N","N","N","N","N","2014-04-06","2014-03-24","2014-03-24",86,86],[487,"CDISCPILOT01","AE","01-708-1178",3,"E06","APPLICATION SITE PRURITUS","APPLICATION SITE ITCHING",null,"APPLICATION SITE PRURITUS",null,"HLT_0317",null,"HLGT_0338",null,"GENERAL DISORDERS AND ADMINISTRATION SITE CONDITIONS",null,"GENERAL DISORDERS AND ADMINISTRATION SITE CONDITIONS",null,"MILD","N","","PROBABLE","NOT RECOVERED/NOT RESOLVED","N","N","N","N","N","N","N","2014-03-09","2014-03-09","2014-04-06",71,99],[488,"CDISCPILOT01","AE","01-708-1178",5,"E06","APPLICATION SITE PRURITUS","APPLICATION SITE ITCHING",null,"APPLICATION SITE PRURITUS",null,"HLT_0317",null,"HLGT_0338",null,"GENERAL DISORDERS AND ADMINISTRATION SITE CONDITIONS",null,"GENERAL DISORDERS AND ADMINISTRATION SITE CONDITIONS",null,"MILD","N","","PROBABLE","RECOVERED/RESOLVED","N","N","N","N","N","N","N","2014-04-06","2014-03-09","2014-04-06",71,99],[489,"CDISCPILOT01","AE","01-708-1178",7,"E10","ATRIAL FIBRILLATION","ATRIAL FIBRILLATION",null,"ATRIAL FIBRILLATION",null,"HLT_0365",null,"HLGT_0012",null,"CARDIAC DISORDERS",null,"CARDIAC DISORDERS",null,"SEVERE","N","","POSSIBLE","RECOVERED/RESOLVED","N","N","N","N","Y","N","N","2014-04-06","2014-03-24","2014-03-26",86,88],[490,"CDISCPILOT01","AE","01-708-1178",8,"E11","CYSTITIS","BLADDER INFECTION",null,"CYSTITIS",null,"HLT_0739",null,"HLGT_0129",null,"INFECTIONS AND INFESTATIONS",null,"INFECTIONS AND INFESTATIONS",null,"MILD","N","","REMOTE","RECOVERED/RESOLVED","N","N","N","N","N","N","N","2014-04-06","2014-03-24","2014-03-28",86,90],[491,"CDISCPILOT01","AE","01-708-1178",6,"E09","DIZZINESS","LIGHT-HEADED",null,"DIZZINESS",null,"HLT_0619",null,"HLGT_0751",null,"NERVOUS SYSTEM DISORDERS",null,"NERVOUS SYSTEM DISORDERS",null,"SEVERE","N","","POSSIBLE","RECOVERED/RESOLVED","N","N","N","N","Y","N","N","2014-04-06","2014-03-24","2014-03-26",86,88],[492,"CDISCPILOT01","AE","01-708-1178",1,"E03","FLANK PAIN","FLANK PAIN",null,"FLANK PAIN",null,"HLT_0484",null,"HLGT_0543",null,"MUSCULOSKELETAL AND CONNECTIVE TISSUE DISORDERS",null,"MUSCULOSKELETAL AND CONNECTIVE TISSUE DISORDERS",null,"MILD","N","","NONE","NOT RECOVERED/NOT RESOLVED","N","N","N","N","N","N","N","2013-12-19","2013-12-19","",-10,null],[493,"CDISCPILOT01","AE","01-708-1178",2,"E05","NASOPHARYNGITIS","COLD",null,"NASOPHARYNGITIS",null,"HLT_0036",null,"HLGT_0709",null,"INFECTIONS AND INFESTATIONS",null,"INFECTIONS AND INFESTATIONS",null,"MILD","N","","NONE","RECOVERED/RESOLVED","N","N","N","N","N","N","N","2014-03-09","2014-03-01","2014-03-08",63,70],[494,"CDISCPILOT01","AE","01-708-1178",4,"E08","VENTRICULAR SEPTAL DEFECT","VENTRICULAR SEPTAL DEFECT",null,"VENTRICULAR SEPTAL DEFECT",null,"HLT_0589",null,"HLGT_0747",null,"CONGENITAL, FAMILIAL AND GENETIC DISORDERS",null,"CONGENITAL, FAMILIAL AND GENETIC DISORDERS",null,"MILD","N","","NONE","NOT RECOVERED/NOT RESOLVED","N","N","N","N","N","N","N","2014-03-09","2014-03-09","",71,null],[495,"CDISCPILOT01","AE","01-708-1213",1,"E03","ATRIAL FIBRILLATION","ATRIAL FIBRILLATION",null,"ATRIAL FIBRILLATION",null,"HLT_0365",null,"HLGT_0012",null,"CARDIAC DISORDERS",null,"CARDIAC DISORDERS",null,"MILD","N","","POSSIBLE","NOT RECOVERED/NOT RESOLVED","N","N","N","N","N","N","N","2013-02-22","2013-02-22","2013-02-22",14,14],[496,"CDISCPILOT01","AE","01-708-1213",2,"E03","ATRIAL FIBRILLATION","ATRIAL FIBRILLATION",null,"ATRIAL FIBRILLATION",null,"HLT_0365",null,"HLGT_0012",null,"CARDIAC DISORDERS",null,"CARDIAC DISORDERS",null,"MILD","N","","POSSIBLE","RECOVERED/RESOLVED","N","N","N","N","N","N","N","2013-02-26","2013-02-22","2013-02-22",14,14],[497,"CDISCPILOT01","AE","01-708-1216",2,"E05","APPLICATION SITE ERYTHEMA","APPLICATION SITE REDNESS",null,"APPLICATION SITE ERYTHEMA",null,"HLT_0617",null,"HLGT_0152",null,"GENERAL DISORDERS AND ADMINISTRATION SITE CONDITIONS",null,"GENERAL DISORDERS AND ADMINISTRATION SITE CONDITIONS",null,"MILD","N","","PROBABLE","NOT RECOVERED/NOT RESOLVED","N","N","N","N","N","N","N","2012-11-08","2012-11-06","2012-12-13",14,51],[498,"CDISCPILOT01","AE","01-708-1216",4,"E05","APPLICATION SITE ERYTHEMA","APPLICATION SITE REDNESS",null,"APPLICATION SITE ERYTHEMA",null,"HLT_0617",null,"HLGT_0152",null,"GENERAL DISORDERS AND ADMINISTRATION SITE CONDITIONS",null,"GENERAL DISORDERS AND ADMINISTRATION SITE CONDITIONS",null,"MILD","N","","PROBABLE","RECOVERED/RESOLVED","N","N","N","N","N","N","N","2013-01-09","2012-11-06","2012-12-13",14,51],[499,"CDISCPILOT01","AE","01-708-1216",1,"E01","APPLICATION SITE PRURITUS","APPLICATION SITE ITCHING",null,"APPLICATION SITE PRURITUS",null,"HLT_0317",null,"HLGT_0338",null,"GENERAL DISORDERS AND ADMINISTRATION SITE CONDITIONS",null,"GENERAL DISORDERS AND ADMINISTRATION SITE CONDITIONS",null,"MILD","N","","PROBABLE","NOT RECOVERED/NOT RESOLVED","N","N","N","N","N","N","N","2012-11-08","2012-11-06","",14,null],[500,"CDISCPILOT01","AE","01-708-1216",3,"E02","APPLICATION SITE SWELLING","APPLICATION SITE SWELLING",null,"APPLICATION SITE SWELLING",null,"HLT_0105",null,"HLGT_0236",null,"GENERAL DISORDERS AND ADMINISTRATION SITE CONDITIONS",null,"GENERAL DISORDERS AND ADMINISTRATION SITE CONDITIONS",null,"MILD","N","","PROBABLE","NOT RECOVERED/NOT RESOLVED","N","N","N","N","N","N","N","2012-11-22","2012-11-22","",30,null],[501,"CDISCPILOT01","AE","01-708-1253",2,"E04","CONJUNCTIVITIS","CONJUNCTIVITIS",null,"CONJUNCTIVITIS",null,"HLT_0584",null,"HLGT_0335",null,"EYE DISORDERS",null,"EYE DISORDERS",null,"MILD","N","","NONE","NOT RECOVERED/NOT RESOLVED","N","N","N","N","N","N","N","2013-05-07","2013-05-06","2013-05-16",-1,10],[502,"CDISCPILOT01","AE","01-708-1253",5,"E04","CONJUNCTIVITIS","CONJUNCTIVITIS",null,"CONJUNCTIVITIS",null,"HLT_0584",null,"HLGT_0335",null,"EYE DISORDERS",null,"EYE DISORDERS",null,"MILD","N","","NONE","RECOVERED/RESOLVED","N","N","N","N","N","N","N","2013-05-21","2013-05-06","2013-05-16",-1,10],[503,"CDISCPILOT01","AE","01-708-1253",1,"E03","COUGH","COUGH",null,"COUGH",null,"HLT_0701",null,"HLGT_0280",null,"RESPIRATORY, THORACIC AND MEDIASTINAL DISORDERS",null,"RESPIRATORY, THORACIC AND MEDIASTINAL DISORDERS",null,"MILD","N","","NONE","NOT RECOVERED/NOT RESOLVED","N","N","N","N","N","N","N","2013-05-07","2013-05-06","2013-05-16",-1,10],[504,"CDISCPILOT01","AE","01-708-1253",4,"E03","COUGH","COUGH",null,"COUGH",null,"HLT_0701",null,"HLGT_0280",null,"RESPIRATORY, THORACIC AND MEDIASTINAL DISORDERS",null,"RESPIRATORY, THORACIC AND MEDIASTINAL DISORDERS",null,"MILD","N","","NONE","RECOVERED/RESOLVED","N","N","N","N","N","N","N","2013-05-21","2013-05-06","2013-05-16",-1,10],[505,"CDISCPILOT01","AE","01-708-1253",7,"E05","DIZZINESS","DIZZINESS",null,"DIZZINESS",null,"HLT_0619",null,"HLGT_0751",null,"NERVOUS SYSTEM DISORDERS",null,"NERVOUS SYSTEM DISORDERS",null,"MILD","N","","POSSIBLE","NOT RECOVERED/NOT RESOLVED","N","N","N","N","N","N","N","2013-06-07","2013-06-07","2013-06-07",32,32],[506,"CDISCPILOT01","AE","01-708-1253",8,"E05","DIZZINESS","DIZZINESS",null,"DIZZINESS",null,"HLT_0619",null,"HLGT_0751",null,"NERVOUS SYSTEM DISORDERS",null,"NERVOUS SYSTEM DISORDERS",null,"MILD","N","","POSSIBLE","RECOVERED/RESOLVED","N","N","N","N","N","N","N","2013-06-09","2013-06-07","2013-06-07",32,32],[507,"CDISCPILOT01","AE","01-708-1253",3,"E02","HEART RATE INCREASED","HEART RATE INCREASED",null,"HEART RATE INCREASED",null,"HLT_0646",null,"HLGT_0673",null,"INVESTIGATIONS",null,"INVESTIGATIONS",null,"MILD","N","","POSSIBLE","NOT RECOVERED/NOT RESOLVED","N","N","N","N","N","N","N","2013-05-07","2013-05-07","2013-05-10",1,4],[508,"CDISCPILOT01","AE","01-708-1253",6,"E02","HEART RATE INCREASED","HEART RATE INCREASED",null,"HEART RATE INCREASED",null,"HLT_0646",null,"HLGT_0673",null,"INVESTIGATIONS",null,"INVESTIGATIONS",null,"MILD","N","","POSSIBLE","RECOVERED/RESOLVED","N","N","N","N","N","N","N","2013-05-21","2013-05-07","2013-05-10",1,4],[509,"CDISCPILOT01","AE","01-708-1272",4,"E11","APPLICATION SITE DERMATITIS","APPLICATION SITE RASH",null,"APPLICATION SITE DERMATITIS",null,"HLT_0343",null,"HLGT_0241",null,"GENERAL DISORDERS AND ADMINISTRATION SITE CONDITIONS",null,"GENERAL DISORDERS AND ADMINISTRATION SITE CONDITIONS",null,"MILD","N","","PROBABLE","RECOVERED/RESOLVED","N","N","N","N","N","N","N","2013-03-07","2013-02-27","2013-02-27",22,22],[510,"CDISCPILOT01","AE","01-708-1272",5,"E08","COUGH","COUGH",null,"COUGH",null,"HLT_0701",null,"HLGT_0280",null,"RESPIRATORY, THORACIC AND MEDIASTINAL DISORDERS",null,"RESPIRATORY, THORACIC AND MEDIASTINAL DISORDERS",null,"MILD","N","","NONE","NOT RECOVERED/NOT RESOLVED","N","N","N","N","N","N","N","2013-03-07","2013-03-01","2013-03-07",24,30],[511,"CDISCPILOT01","AE","01-708-1272",8,"E08","COUGH","COUGH",null,"COUGH",null,"HLT_0701",null,"HLGT_0280",null,"RESPIRATORY, THORACIC AND MEDIASTINAL DISORDERS",null,"RESPIRATORY, THORACIC AND MEDIASTINAL DISORDERS",null,"MILD","N","","NONE","RECOVERED/RESOLVED","N","N","N","N","N","N","N","2013-03-09","2013-03-01","2013-03-07",24,30],[512,"CDISCPILOT01","AE","01-708-1272",1,"E12","DIARRHOEA","DIARRHEA",null,"DIARRHOEA",null,"HLT_0148",null,"HLGT_0588",null,"GASTROINTESTINAL DISORDERS",null,"GASTROINTESTINAL DISORDERS",null,"MILD","N","","NONE","RECOVERED/RESOLVED","N","N","N","N","N","N","N","2013-02-21","2013-02-11","2013-02-11",6,6],[513,"CDISCPILOT01","AE","01-708-1272",7,"E10","HEADACHE","HEADACHE",null,"HEADACHE",null,"HLT_0064",null,"HLGT_0344",null,"NERVOUS SYSTEM DISORDERS",null,"NERVOUS SYSTEM DISORDERS",null,"MILD","N","","NONE","NOT RECOVERED/NOT RESOLVED","N","N","N","N","N","N","N","2013-03-07","2013-03-07","2013-03-07",30,30],[514,"CDISCPILOT01","AE","01-708-1272",10,"E10","HEADACHE","HEADACHE",null,"HEADACHE",null,"HLT_0064",null,"HLGT_0344",null,"NERVOUS SYSTEM DISORDERS",null,"NERVOUS SYSTEM DISORDERS",null,"MILD","N","","NONE","RECOVERED/RESOLVED","N","N","N","N","N","N","N","2013-03-09","2013-03-07","2013-03-07",30,30],[515,"CDISCPILOT01","AE","01-708-1272",11,"E14","HOT FLUSH","HOT FLASHES",null,"HOT FLUSH",null,"HLT_0737",null,"HLGT_0773",null,"VASCULAR DISORDERS",null,"VASCULAR DISORDERS",null,"MILD","N","","NONE","RECOVERED/RESOLVED","N","N","N","N","N","N","N","2013-03-20","2013-03-19","2013-03-19",42,42],[516,"CDISCPILOT01","AE","01-708-1272",2,"E13","MUSCLE SPASMS","LEG CRAMPS",null,"MUSCLE SPASMS",null,"HLT_0078",null,"HLGT_0750",null,"MUSCULOSKELETAL AND CONNECTIVE TISSUE DISORDERS",null,"MUSCULOSKELETAL AND CONNECTIVE TISSUE DISORDERS",null,"SEVERE","N","","NONE","RECOVERED/RESOLVED","N","N","N","N","N","N","N","2013-02-21","2013-02-18","2013-02-18",13,13],[517,"CDISCPILOT01","AE","01-708-1272",6,"E09","NASOPHARYNGITIS","COLD",null,"NASOPHARYNGITIS",null,"HLT_0036",null,"HLGT_0709",null,"INFECTIONS AND INFESTATIONS",null,"INFECTIONS AND INFESTATIONS",null,"MILD","N","","NONE","NOT RECOVERED/NOT RESOLVED","N","N","N","N","N","N","N","2013-03-07","2013-03-01","2013-03-07",24,30],[518,"CDISCPILOT01","AE","01-708-1272",9,"E09","NASOPHARYNGITIS","COLD",null,"NASOPHARYNGITIS",null,"HLT_0036",null,"HLGT_0709",null,"INFECTIONS AND INFESTATIONS",null,"INFECTIONS AND INFESTATIONS",null,"MILD","N","","NONE","RECOVERED/RESOLVED","N","N","N","N","N","N","N","2013-03-09","2013-03-01","2013-03-07",24,30],[519,"CDISCPILOT01","AE","01-708-1272",3,"E05","VENTRICULAR EXTRASYSTOLES","VENTRICULAR BIGEMINY",null,"VENTRICULAR EXTRASYSTOLES",null,"HLT_0050",null,"HLGT_0594",null,"CARDIAC DISORDERS",null,"CARDIAC DISORDERS",null,"MILD","N","","REMOTE","NOT RECOVERED/NOT RESOLVED","N","N","N","N","N","N","N","2013-02-21","2013-02-21","2013-03-20",16,43],[520,"CDISCPILOT01","AE","01-708-1272",12,"E05","VENTRICULAR EXTRASYSTOLES","VENTRICULAR BIGEMINY",null,"VENTRICULAR EXTRASYSTOLES",null,"HLT_0050",null,"HLGT_0594",null,"CARDIAC DISORDERS",null,"CARDIAC DISORDERS",null,"MILD","N","","REMOTE","RECOVERED/RESOLVED","N","N","N","N","N","N","N","2013-04-04","2013-02-21","2013-03-20",16,43],[521,"CDISCPILOT01","AE","01-708-1286",3,"E08","ABDOMINAL PAIN","ABDOMINAL PAIN",null,"ABDOMINAL PAIN",null,"HLT_0217",null,"HLGT_0419",null,"GASTROINTESTINAL DISORDERS",null,"GASTROINTESTINAL DISORDERS",null,"MILD","N","","REMOTE","RECOVERED/RESOLVED","N","N","N","N","N","N","N","2014-02-23","2014-02-18","2014-02-18",162,162],[522,"CDISCPILOT01","AE","01-708-1286",1,"E06","APPLICATION SITE PRURITUS","APPLICATION SITE ITCHING",null,"APPLICATION SITE PRURITUS",null,"HLT_0317",null,"HLGT_0338",null,"GENERAL DISORDERS AND ADMINISTRATION SITE CONDITIONS",null,"GENERAL DISORDERS AND ADMINISTRATION SITE CONDITIONS",null,"MILD","N","","PROBABLE","NOT RECOVERED/NOT RESOLVED","N","N","N","N","N","N","N","2013-09-23","2013-09-12","",3,null],[523,"CDISCPILOT01","AE","01-708-1286",4,"E09","CONSTIPATION","CONSTIPATION",null,"CONSTIPATION",null,"HLT_0402",null,"HLGT_0635",null,"GASTROINTESTINAL DISORDERS",null,"GASTROINTESTINAL DISORDERS",null,"MILD","N","","REMOTE","RECOVERED/RESOLVED","N","N","N","N","N","N","N","2014-02-23","2014-02-18","2014-02-18",162,162],[524,"CDISCPILOT01","AE","01-708-1286",2,"E04","MYOCARDIAL INFARCTION","INFERIOR MYOCARDIAL INFARCTION",null,"MYOCARDIAL INFARCTION",null,"HLT_0649",null,"HLGT_0688",null,"CARDIAC DISORDERS",null,"CARDIAC DISORDERS",null,"MILD","N","","REMOTE","NOT RECOVERED/NOT RESOLVED","N","N","N","N","N","N","N","2013-09-23","2013-09-23","",14,null],[525,"CDISCPILOT01","AE","01-708-1296",3,"E04","APPLICATION SITE PRURITUS","APPLICATION SITE ITCHING",null,"APPLICATION SITE PRURITUS",null,"HLT_0317",null,"HLGT_0338",null,"GENERAL DISORDERS AND ADMINISTRATION SITE CONDITIONS",null,"GENERAL DISORDERS AND ADMINISTRATION SITE CONDITIONS",null,"MILD","N","","PROBABLE","NOT RECOVERED/NOT RESOLVED","N","N","N","N","N","N","N","2013-09-04","2013-09-04","2013-09-18",83,97],[526,"CDISCPILOT01","AE","01-708-1296",4,"E04","APPLICATION SITE PRURITUS","APPLICATION SITE ITCHING",null,"APPLICATION SITE PRURITUS",null,"HLT_0317",null,"HLGT_0338",null,"GENERAL DISORDERS AND ADMINISTRATION SITE CONDITIONS",null,"GENERAL DISORDERS AND ADMINISTRATION SITE CONDITIONS",null,"MILD","N","","PROBABLE","RECOVERED/RESOLVED","N","N","N","N","N","N","N","2013-10-02","2013-09-04","2013-09-18",83,97],[527,"CDISCPILOT01","AE","01-708-1296",5,"E05","APPLICATION SITE VESICLES","APPLICATION SITE BLISTER",null,"APPLICATION SITE VESICLES",null,"HLT_0180",null,"HLGT_0576",null,"GENERAL DISORDERS AND ADMINISTRATION SITE CONDITIONS",null,"GENERAL DISORDERS AND ADMINISTRATION SITE CONDITIONS",null,"MILD","N","","PROBABLE","NOT RECOVERED/NOT RESOLVED","N","N","N","N","N","N","N","2013-10-30","2013-10-04","2013-10-30",113,139],[528,"CDISCPILOT01","AE","01-708-1296",6,"E05","APPLICATION SITE VESICLES","APPLICATION SITE BLISTER",null,"APPLICATION SITE VESICLES",null,"HLT_0180",null,"HLGT_0576",null,"GENERAL DISORDERS AND ADMINISTRATION SITE CONDITIONS",null,"GENERAL DISORDERS AND ADMINISTRATION SITE CONDITIONS",null,"MILD","N","","PROBABLE","RECOVERED/RESOLVED","N","N","N","N","N","N","N","2013-11-27","2013-10-04","2013-10-30",113,139],[529,"CDISCPILOT01","AE","01-708-1296",1,"E03","ATRIAL HYPERTROPHY","LEFT ATRIAL HYPERTROPHY",null,"ATRIAL HYPERTROPHY",null,"HLT_0271",null,"HLGT_0067",null,"CARDIAC DISORDERS",null,"CARDIAC DISORDERS",null,"MILD","N","","REMOTE","NOT RECOVERED/NOT RESOLVED","N","N","N","N","N","N","N","2013-06-27","2013-06-27","2013-06-27",14,14],[530,"CDISCPILOT01","AE","01-708-1296",2,"E03","ATRIAL HYPERTROPHY","LEFT ATRIAL HYPERTROPHY",null,"ATRIAL HYPERTROPHY",null,"HLT_0271",null,"HLGT_0067",null,"CARDIAC DISORDERS",null,"CARDIAC DISORDERS",null,"MILD","N","","REMOTE","RECOVERED/RESOLVED","N","N","N","N","N","N","N","2013-07-10","2013-06-27","2013-06-27",14,14],[531,"CDISCPILOT01","AE","01-708-1296",7,"E07","PAIN IN EXTREMITY","PAIN IN THIGH",null,"PAIN IN EXTREMITY",null,"HLT_0213",null,"HLGT_0764",null,"MUSCULOSKELETAL AND CONNECTIVE TISSUE DISORDERS",null,"MUSCULOSKELETAL AND CONNECTIVE TISSUE DISORDERS",null,"MILD","N","","REMOTE","RECOVERED/RESOLVED","N","N","N","N","N","N","N","2013-12-12","2013-12-07","2013-12-07",177,177],[532,"CDISCPILOT01","AE","01-708-1297",1,"E02","APPLICATION SITE PRURITUS","APPLICATION SITE ITCHING",null,"APPLICATION SITE PRURITUS",null,"HLT_0317",null,"HLGT_0338",null,"GENERAL DISORDERS AND ADMINISTRATION SITE CONDITIONS",null,"GENERAL DISORDERS AND ADMINISTRATION SITE CONDITIONS",null,"MILD","N","","PROBABLE","NOT RECOVERED/NOT RESOLVED","N","N","N","N","N","N","N","2013-04-16","2013-04-02","",68,null],[533,"CDISCPILOT01","AE","01-708-1297",2,"E03","APPLICATION SITE SWELLING","APPLICATION SITE SWELLING",null,"APPLICATION SITE SWELLING",null,"HLT_0105",null,"HLGT_0236",null,"GENERAL DISORDERS AND ADMINISTRATION SITE CONDITIONS",null,"GENERAL DISORDERS AND ADMINISTRATION SITE CONDITIONS",null,"MILD","N","","PROBABLE","NOT RECOVERED/NOT RESOLVED","N","N","N","N","N","N","N","2013-04-16","2013-04-02","",68,null],[534,"CDISCPILOT01","AE","01-708-1297",3,"E04","SINUS BRADYCARDIA","SINUS BRADYCARDIA",null,"SINUS BRADYCARDIA",null,"HLT_0644",null,"HLGT_0500",null,"CARDIAC DISORDERS",null,"CARDIAC DISORDERS",null,"MILD","N","","REMOTE","NOT RECOVERED/NOT RESOLVED","N","N","N","N","N","N","N","2013-05-08","2013-05-08","",104,null],[535,"CDISCPILOT01","AE","01-708-1316",2,"E04","APPLICATION SITE ERYTHEMA","APPLICATION SITE REDNESS",null,"APPLICATION SITE ERYTHEMA",null,"HLT_0617",null,"HLGT_0152",null,"GENERAL DISORDERS AND ADMINISTRATION SITE CONDITIONS",null,"GENERAL DISORDERS AND ADMINISTRATION SITE CONDITIONS",null,"MILD","N","","PROBABLE","NOT RECOVERED/NOT RESOLVED","N","N","N","N","N","N","N","2014-02-15","2014-02-15","",177,null],[536,"CDISCPILOT01","AE","01-708-1316",1,"E05","HEADACHE","HEADACHE",null,"HEADACHE",null,"HLT_0064",null,"HLGT_0344",null,"NERVOUS SYSTEM DISORDERS",null,"NERVOUS SYSTEM DISORDERS",null,"MILD","N","","POSSIBLE","NOT RECOVERED/NOT RESOLVED","N","N","N","N","N","N","N","2014-02-15","2014-01-29","",160,null],[537,"CDISCPILOT01","AE","01-708-1336",5,"E11","APPLICATION SITE ERYTHEMA","APPLICATION SITE REDNESS",null,"APPLICATION SITE ERYTHEMA",null,"HLT_0617",null,"HLGT_0152",null,"GENERAL DISORDERS AND ADMINISTRATION SITE CONDITIONS",null,"GENERAL DISORDERS AND ADMINISTRATION SITE CONDITIONS",null,"MILD","N","","PROBABLE","NOT RECOVERED/NOT RESOLVED","N","N","N","N","N","N","N","2013-04-23","2013-04-10","2013-06-05",125,181],[538,"CDISCPILOT01","AE","01-708-1336",7,"E11","APPLICATION SITE ERYTHEMA","APPLICATION SITE REDNESS",null,"APPLICATION SITE ERYTHEMA",null,"HLT_0617",null,"HLGT_0152",null,"GENERAL DISORDERS AND ADMINISTRATION SITE CONDITIONS",null,"GENERAL DISORDERS AND ADMINISTRATION SITE CONDITIONS",null,"MILD","N","","PROBABLE","RECOVERED/RESOLVED","N","N","N","N","N","N","N","2013-07-05","2013-04-10","2013-06-05",125,181],[539,"CDISCPILOT01","AE","01-708-1336",2,"E08","APPLICATION SITE PRURITUS","APPLICATION SITE ITCHING",null,"APPLICATION SITE PRURITUS",null,"HLT_0317",null,"HLGT_0338",null,"GENERAL DISORDERS AND ADMINISTRATION SITE CONDITIONS",null,"GENERAL DISORDERS AND ADMINISTRATION SITE CONDITIONS",null,"MILD","N","","PROBABLE","RECOVERED/RESOLVED","N","N","N","N","N","N","N","2013-01-15","2013-01-12","2013-01-12",37,37],[540,"CDISCPILOT01","AE","01-708-1336",4,"E10","APPLICATION SITE PRURITUS","APPLICATION SITE ITCHING",null,"APPLICATION SITE PRURITUS",null,"HLT_0317",null,"HLGT_0338",null,"GENERAL DISORDERS AND ADMINISTRATION SITE CONDITIONS",null,"GENERAL DISORDERS AND ADMINISTRATION SITE CONDITIONS",null,"MILD","N","","PROBABLE","NOT RECOVERED/NOT RESOLVED","N","N","N","N","N","N","N","2013-04-23","2013-04-10","2013-06-05",125,181],[541,"CDISCPILOT01","AE","01-708-1336",6,"E10","APPLICATION SITE PRURITUS","APPLICATION SITE ITCHING",null,"APPLICATION SITE PRURITUS",null,"HLT_0317",null,"HLGT_0338",null,"GENERAL DISORDERS AND ADMINISTRATION SITE CONDITIONS",null,"GENERAL DISORDERS AND ADMINISTRATION SITE CONDITIONS",null,"MILD","N","","PROBABLE","RECOVERED/RESOLVED","N","N","N","N","N","N","N","2013-07-05","2013-04-10","2013-06-05",125,181],[542,"CDISCPILOT01","AE","01-708-1336",1,"E06","DIZZINESS","LIGHTHEADEDNESS",null,"DIZZINESS",null,"HLT_0619",null,"HLGT_0751",null,"NERVOUS SYSTEM DISORDERS",null,"NERVOUS SYSTEM DISORDERS",null,"MILD","N","","POSSIBLE","RECOVERED/RESOLVED","N","N","N","N","N","N","N","2012-12-21","2012-12-18","2012-12-18",12,12],[543,"CDISCPILOT01","AE","01-708-1336",3,"E09","DIZZINESS","LIGHT HEADEDNESS",null,"DIZZINESS",null,"HLT_0619",null,"HLGT_0751",null,"NERVOUS SYSTEM DISORDERS",null,"NERVOUS SYSTEM DISORDERS",null,"MILD","N","","POSSIBLE","RECOVERED/RESOLVED","N","N","N","N","N","N","N","2013-02-27","2013-02-02","2013-02-02",58,58],[544,"CDISCPILOT01","AE","01-708-1347",3,"E04","APPLICATION SITE ERYTHEMA","APPLICATION SITE REDNESS",null,"APPLICATION SITE ERYTHEMA",null,"HLT_0617",null,"HLGT_0152",null,"GENERAL DISORDERS AND ADMINISTRATION SITE CONDITIONS",null,"GENERAL DISORDERS AND ADMINISTRATION SITE CONDITIONS",null,"MODERATE","N","","PROBABLE","NOT RECOVERED/NOT RESOLVED","N","N","N","N","N","N","N","2013-06-13","2013-06-13","2013-06-25",55,67],[545,"CDISCPILOT01","AE","01-708-1347",7,"E04","APPLICATION SITE ERYTHEMA","APPLICATION SITE REDNESS",null,"APPLICATION SITE ERYTHEMA",null,"HLT_0617",null,"HLGT_0152",null,"GENERAL DISORDERS AND ADMINISTRATION SITE CONDITIONS",null,"GENERAL DISORDERS AND ADMINISTRATION SITE CONDITIONS",null,"MODERATE","N","","PROBABLE","RECOVERED/RESOLVED","N","N","N","N","N","N","N","2013-08-02","2013-06-13","2013-06-25",55,67],[546,"CDISCPILOT01","AE","01-708-1347",4,"E05","APPLICATION SITE SWELLING","APPLICATION SITE SWELLING",null,"APPLICATION SITE SWELLING",null,"HLT_0105",null,"HLGT_0236",null,"GENERAL DISORDERS AND ADMINISTRATION SITE CONDITIONS",null,"GENERAL DISORDERS AND ADMINISTRATION SITE CONDITIONS",null,"MODERATE","N","","PROBABLE","NOT RECOVERED/NOT RESOLVED","N","N","N","N","N","N","N","2013-06-13","2013-06-13","2013-06-25",55,67],[547,"CDISCPILOT01","AE","01-708-1347",8,"E05","APPLICATION SITE SWELLING","APPLICATION SITE SWELLING",null,"APPLICATION SITE SWELLING",null,"HLT_0105",null,"HLGT_0236",null,"GENERAL DISORDERS AND ADMINISTRATION SITE CONDITIONS",null,"GENERAL DISORDERS AND ADMINISTRATION SITE CONDITIONS",null,"MODERATE","N","","PROBABLE","RECOVERED/RESOLVED","N","N","N","N","N","N","N","2013-08-02","2013-06-13","2013-06-25",55,67],[548,"CDISCPILOT01","AE","01-708-1347",2,"E03","ERYTHEMA","ERYTHEMA",null,"ERYTHEMA",null,"HLT_0284",null,"HLGT_0192",nul