{"creationDateTime":"2024-02-14T11:46:15","datasetJSONVersion":"1.0.0","fileOID":"CDISCPILOT01.dm","clinicalData":{"studyOID":"CDISCPILOT01","metaDataVersionOID":"MDV.CDISCPILOT01","itemGroupData":{"IG.DM":{"records":306,"name":"DM","label":"Demographics","items":[{"OID":"ITEMGROUPDATASEQ","name":"ITEMGROUPDATASEQ","label":"Record Identifier","type":"integer"},{"OID":"IT.DM.STUDYID","name":"STUDYID","label":"Study Identifier","type":"string","length":12,"displayFormat":"."},{"OID":"IT.DM.SITEID","name":"SITEID","label":"Study Site Identifier","type":"string","length":3,"displayFormat":"."},{"OID":"IT.DM.DOMAIN","name":"DOMAIN","label":"Domain Abbreviation","type":"string","length":2,"displayFormat":"."},{"OID":"IT.DM.USUBJID","name":"USUBJID","label":"Unique Subject Identifier","type":"string","length":11,"displayFormat":"."},{"OID":"IT.DM.SUBJID","name":"SUBJID","label":"Subject Identifier for the Study","type":"string","length":4,"displayFormat":"."},{"OID":"IT.DM.RFSTDTC","name":"RFSTDTC","label":"Subject Reference Start Date/Time","type":"string","length":10,"displayFormat":"."},{"OID":"IT.DM.RFENDTC","name":"RFENDTC","label":"Subject Reference End Date/Time","type":"string","length":10,"displayFormat":"."},{"OID":"IT.DM.RFXSTDTC","name":"RFXSTDTC","label":"Date/Time of First Study Treatment","type":"string","length":20,"displayFormat":"."},{"OID":"IT.DM.RFXENDTC","name":"RFXENDTC","label":"Date/Time of Last Study Treatment","type":"string","length":20,"displayFormat":"."},{"OID":"IT.DM.RFICDTC","name":"RFICDTC","label":"Date/Time of Informed Consent","type":"string","length":20,"displayFormat":"."},{"OID":"IT.DM.RFPENDTC","name":"RFPENDTC","label":"Date/Time of End of Participation","type":"string","length":20,"displayFormat":"."},{"OID":"IT.DM.DTHDTC","name":"DTHDTC","label":"Date/Time of Death","type":"string","length":20,"displayFormat":"."},{"OID":"IT.DM.DTHFL","name":"DTHFL","label":"Subject Death Flag","type":"string","length":1,"displayFormat":"."},{"OID":"IT.DM.AGE","name":"AGE","label":"Age","type":"float","length":8,"displayFormat":"."},{"OID":"IT.DM.AGEU","name":"AGEU","label":"Age Units","type":"string","length":6,"displayFormat":"."},{"OID":"IT.DM.SEX","name":"SEX","label":"Sex","type":"string","length":1,"displayFormat":"."},{"OID":"IT.DM.RACE","name":"RACE","label":"Race","type":"string","length":78,"displayFormat":"."},{"OID":"IT.DM.ETHNIC","name":"ETHNIC","label":"Ethnicity","type":"string","length":25,"displayFormat":"."},{"OID":"IT.DM.COUNTRY","name":"COUNTRY","label":"Country","type":"string","length":3,"displayFormat":"."},{"OID":"IT.DM.ARM","name":"ARM","label":"Description of Planned Arm","type":"string","length":20,"displayFormat":"."},{"OID":"IT.DM.ARMCD","name":"ARMCD","label":"Planned Arm Code","type":"string","length":8,"displayFormat":"."},{"OID":"IT.DM.ACTARM","name":"ACTARM","label":"Description of Actual Arm","type":"string","length":20,"displayFormat":"."},{"OID":"IT.DM.ACTARMCD","name":"ACTARMCD","label":"Actual Arm Code","type":"string","length":8,"displayFormat":"."},{"OID":"IT.DM.DMDTC","name":"DMDTC","label":"Date/Time of Collection","type":"string","length":10,"displayFormat":"."},{"OID":"IT.DM.DMDY","name":"DMDY","label":"Study Day of Collection","type":"float","length":8,"displayFormat":"."}],"itemData":[[1,"CDISCPILOT01","701","DM","01-701-1015","1015","2014-01-02","2014-07-02","2014-01-02","2014-07-02","","2014-07-02T11:45","","",63,"YEARS","F","WHITE","HISPANIC OR LATINO","USA","Placebo","Pbo","Placebo","Pbo","2013-12-26",-7],[2,"CDISCPILOT01","701","DM","01-701-1023","1023","2012-08-05","2012-09-02","2012-08-05","2012-09-01","","2013-02-18","","",64,"YEARS","M","WHITE","HISPANIC OR LATINO","USA","Placebo","Pbo","Placebo","Pbo","2012-07-22",-14],[3,"CDISCPILOT01","701","DM","01-701-1028","1028","2013-07-19","2014-01-14","2013-07-19","2014-01-14","","2014-01-14T11:10","","",71,"YEARS","M","WHITE","NOT HISPANIC OR LATINO","USA","Xanomeline High Dose","Xan_Hi","Xanomeline High Dose","Xan_Hi","2013-07-11",-8],[4,"CDISCPILOT01","701","DM","01-701-1033","1033","2014-03-18","2014-04-14","2014-03-18","2014-03-31","","2014-09-15","","",74,"YEARS","M","WHITE","NOT HISPANIC OR LATINO","USA","Xanomeline Low Dose","Xan_Lo","Xanomeline Low Dose","Xan_Lo","2014-03-10",-8],[5,"CDISCPILOT01","701","DM","01-701-1034","1034","2014-07-01","2014-12-30","2014-07-01","2014-12-30","","2014-12-30T09:50","","",77,"YEARS","F","WHITE","NOT HISPANIC OR LATINO","USA","Xanomeline High Dose","Xan_Hi","Xanomeline High Dose","Xan_Hi","2014-06-24",-7],[6,"CDISCPILOT01","701","DM","01-701-1047","1047","2013-02-12","2013-03-29","2013-02-12","2013-03-09","","2013-07-28","","",85,"YEARS","F","WHITE","NOT HISPANIC OR LATINO","USA","Placebo","Pbo","Placebo","Pbo","2013-01-22",-21],[7,"CDISCPILOT01","701","DM","01-701-1057","1057","","","","","","2013-12-27","","",59,"YEARS","F","WHITE","HISPANIC OR LATINO","USA","Screen Failure","Scrnfail","Screen Failure","Scrnfail","2013-12-20",null],[8,"CDISCPILOT01","701","DM","01-701-1097","1097","2014-01-01","2014-07-09","2014-01-01","2014-07-09","","2014-07-09T09:39","","",68,"YEARS","M","WHITE","NOT HISPANIC OR LATINO","USA","Xanomeline Low Dose","Xan_Lo","Xanomeline Low Dose","Xan_Lo","2013-12-23",-9],[9,"CDISCPILOT01","701","DM","01-701-1111","1111","2012-09-07","2012-09-17","2012-09-07","2012-09-16","","2013-02-22","","",81,"YEARS","F","WHITE","NOT HISPANIC OR LATINO","USA","Xanomeline Low Dose","Xan_Lo","Xanomeline Low Dose","Xan_Lo","2012-08-25",-13],[10,"CDISCPILOT01","701","DM","01-701-1115","1115","2012-11-30","2013-01-23","2012-11-30","2013-01-23","","2013-05-20","","",84,"YEARS","M","WHITE","NOT HISPANIC OR LATINO","USA","Xanomeline Low Dose","Xan_Lo","Xanomeline Low Dose","Xan_Lo","2012-11-23",-7],[11,"CDISCPILOT01","701","DM","01-701-1118","1118","2014-03-12","2014-09-09","2014-03-12","2014-09-09","","2014-09-09T13:28","","",52,"YEARS","M","WHITE","NOT HISPANIC OR LATINO","USA","Placebo","Pbo","Placebo","Pbo","2014-02-27",-13],[12,"CDISCPILOT01","701","DM","01-701-1130","1130","2014-02-15","2014-08-16","2014-02-15","2014-08-16","","2014-08-16T13:10","","",84,"YEARS","M","WHITE","NOT HISPANIC OR LATINO","USA","Placebo","Pbo","Placebo","Pbo","2014-02-09",-6],[13,"CDISCPILOT01","701","DM","01-701-1133","1133","2012-10-28","2013-04-29","2012-10-28","2013-04-28","","2013-04-29T10:13","","",81,"YEARS","F","WHITE","NOT HISPANIC OR LATINO","USA","Xanomeline High Dose","Xan_Hi","Xanomeline High Dose","Xan_Hi","2012-10-23",-5],[14,"CDISCPILOT01","701","DM","01-701-1145","1145","","","","","","2013-09-19","","",57,"YEARS","F","WHITE","NOT HISPANIC OR LATINO","USA","Screen Failure","Scrnfail","Screen Failure","Scrnfail","2013-09-05",null],[15,"CDISCPILOT01","701","DM","01-701-1146","1146","2013-05-20","2013-06-30","2013-05-20","2013-06-26","","2013-07-15","","",75,"YEARS","F","WHITE","NOT HISPANIC OR LATINO","USA","Xanomeline High Dose","Xan_Hi","Xanomeline High Dose","Xan_Hi","2013-05-07",-13],[16,"CDISCPILOT01","701","DM","01-701-1148","1148","2013-08-23","2014-02-20","2013-08-23","2014-02-20","","2014-02-20T15:07","","",57,"YEARS","M","WHITE","NOT HISPANIC OR LATINO","USA","Xanomeline High Dose","Xan_Hi","Xanomeline High Dose","Xan_Hi","2013-08-14",-9],[17,"CDISCPILOT01","701","DM","01-701-1153","1153","2013-09-23","2014-04-01","2013-09-23","2014-03-16","","2014-04-01T14:25","","",79,"YEARS","F","WHITE","NOT HISPANIC OR LATINO","USA","Placebo","Pbo","Placebo","Pbo","2013-09-06",-17],[18,"CDISCPILOT01","701","DM","01-701-1162","1162","","","","","","2013-04-18","","",82,"YEARS","F","WHITE","NOT HISPANIC OR LATINO","USA","Screen Failure","Scrnfail","Screen Failure","Scrnfail","2013-04-18",null],[19,"CDISCPILOT01","701","DM","01-701-1176","1176","","","","","","2012-09-30","","",62,"YEARS","F","AMERICAN INDIAN OR ALASKA NATIVE","NOT HISPANIC OR LATINO","USA","Screen Failure","Scrnfail","Screen Failure","Scrnfail","2012-09-30",null],[20,"CDISCPILOT01","701","DM","01-701-1180","1180","2013-02-12","2013-03-23","2013-02-12","2013-03-18","","2013-04-07","","",56,"YEARS","M","WHITE","NOT HISPANIC OR LATINO","USA","Xanomeline High Dose","Xan_Hi","Xanomeline High Dose","Xan_Hi","2013-01-28",-15],[21,"CDISCPILOT01","701","DM","01-701-1181","1181","2013-12-05","2013-12-12","2013-12-05","2013-12-09","","2014-05-23","","",79,"YEARS","F","WHITE","NOT HISPANIC OR LATINO","USA","Xanomeline High Dose","Xan_Hi","Xanomeline Low Dose","Xan_Lo","2013-11-26",-9],[22,"CDISCPILOT01","701","DM","01-701-1188","1188","2013-02-15","2013-03-25","2013-02-15","2013-03-24","","2013-08-04","","",71,"YEARS","M","WHITE","NOT HISPANIC OR LATINO","USA","Xanomeline Low Dose","Xan_Lo","Xanomeline Low Dose","Xan_Lo","2013-02-03",-12],[23,"CDISCPILOT01","701","DM","01-701-1192","1192","2012-07-22","2013-01-20","2012-07-22","2013-01-20","","2013-01-20T15:47","","",80,"YEARS","F","WHITE","NOT HISPANIC OR LATINO","USA","Xanomeline Low Dose","Xan_Lo","Xanomeline Low Dose","Xan_Lo","2012-07-08",-14],[24,"CDISCPILOT01","701","DM","01-701-1203","1203","2013-02-02","2013-08-03","2013-02-02","2013-08-03","","2013-08-03T10:10","","",81,"YEARS","F","BLACK OR AFRICAN AMERICAN","NOT HISPANIC OR LATINO","USA","Placebo","Pbo","Placebo","Pbo","2013-01-25",-8],[25,"CDISCPILOT01","701","DM","01-701-1211","1211","2012-11-15","2013-01-14","2012-11-15","2013-01-12","","2013-01-14","2013-01-14","Y",76,"YEARS","F","WHITE","NOT HISPANIC OR LATINO","USA","Xanomeline Low Dose","Xan_Lo","Xanomeline Low Dose","Xan_Lo","2012-10-30",-16],[26,"CDISCPILOT01","701","DM","01-701-1234","1234","2013-03-30","2013-09-22","2013-03-30","2013-09-22","","2013-09-22T09:25","","",69,"YEARS","M","WHITE","NOT HISPANIC OR LATINO","USA","Placebo","Pbo","Placebo","Pbo","2013-03-20",-10],[27,"CDISCPILOT01","701","DM","01-701-1239","1239","2014-01-11","2014-07-11","2014-01-11","2014-07-10","","2014-07-11T15:40","","",56,"YEARS","M","WHITE","HISPANIC OR LATINO","USA","Xanomeline High Dose","Xan_Hi","Xanomeline High Dose","Xan_Hi","2013-12-28",-14],[28,"CDISCPILOT01","701","DM","01-701-1240","1240","","","","","","2013-09-24","","",57,"YEARS","F","BLACK OR AFRICAN AMERICAN","NOT HISPANIC OR LATINO","USA","Screen Failure","Scrnfail","Screen Failure","Scrnfail","2013-09-22",null],[29,"CDISCPILOT01","701","DM","01-701-1275","1275","2014-02-07","2014-06-14","2014-02-07","2014-05-31","","2014-06-14T12:35","","",61,"YEARS","M","AMERICAN INDIAN OR ALASKA NATIVE","NOT HISPANIC OR LATINO","USA","Xanomeline High Dose","Xan_Hi","Xanomeline High Dose","Xan_Hi","2014-01-25",-13],[30,"CDISCPILOT01","701","DM","01-701-1287","1287","2014-01-25","2014-07-26","2014-01-25","2014-07-26","","2014-07-26T13:15","","",56,"YEARS","F","WHITE","HISPANIC OR LATINO","USA","Xanomeline High Dose","Xan_Hi","Xanomeline High Dose","Xan_Hi","2014-01-17",-8],[31,"CDISCPILOT01","701","DM","01-701-1294","1294","2013-03-24","2013-06-14","2013-03-24","2013-06-14","","2013-10-08","","",67,"YEARS","M","WHITE","NOT HISPANIC OR LATINO","USA","Xanomeline Low Dose","Xan_Lo","Xanomeline Low Dose","Xan_Lo","2013-03-17",-7],[32,"CDISCPILOT01","701","DM","01-701-1302","1302","2013-08-29","2013-11-05","2013-08-29","2013-11-05","","2014-02-13","","",61,"YEARS","M","WHITE","NOT HISPANIC OR LATINO","USA","Xanomeline High Dose","Xan_Hi","Xanomeline High Dose","Xan_Hi","2013-08-20",-9],[33,"CDISCPILOT01","701","DM","01-701-1307","1307","","","","","","2014-01-02","","",80,"YEARS","F","WHITE","NOT HISPANIC OR LATINO","USA","Screen Failure","Scrnfail","Screen Failure","Scrnfail","2013-12-08",null],[34,"CDISCPILOT01","701","DM","01-701-1317","1317","2014-05-22","2014-11-20","2014-05-22","2014-11-20","","2014-11-20T11:54","","",68,"YEARS","M","WHITE","NOT HISPANIC OR LATINO","USA","Xanomeline Low Dose","Xan_Lo","Xanomeline Low Dose","Xan_Lo","2014-05-10",-12],[35,"CDISCPILOT01","701","DM","01-701-1324","1324","2012-10-02","2013-04-02","2012-10-02","2013-04-02","","2013-04-02T11:35","","",79,"YEARS","M","WHITE","NOT HISPANIC OR LATINO","USA","Xanomeline Low Dose","Xan_Lo","Xanomeline Low Dose","Xan_Lo","2012-09-16",-16],[36,"CDISCPILOT01","701","DM","01-701-1341","1341","2013-01-05","2013-02-07","2013-01-05","2013-01-26","","2013-02-21","","",51,"YEARS","M","WHITE","NOT HISPANIC OR LATINO","USA","Xanomeline Low Dose","Xan_Lo","Xanomeline Low Dose","Xan_Lo","2012-12-22",-14],[37,"CDISCPILOT01","701","DM","01-701-1345","1345","2013-10-08","2014-03-18","2013-10-08","2014-03-18","","2014-03-18T14:12","","",63,"YEARS","F","WHITE","NOT HISPANIC OR LATINO","USA","Placebo","Pbo","Placebo","Pbo","2013-10-01",-7],[38,"CDISCPILOT01","701","DM","01-701-1356","1356","","","","","","2014-05-28","","",54,"YEARS","F","WHITE","HISPANIC OR LATINO","USA","Screen Failure","Scrnfail","Screen Failure","Scrnfail","2014-04-01",null],[39,"CDISCPILOT01","701","DM","01-701-1360","1360","2013-07-31","2013-08-14","2013-07-31","2013-08-05","","2014-02-11","","",67,"YEARS","M","WHITE","NOT HISPANIC OR LATINO","USA","Xanomeline High Dose","Xan_Hi","Xanomeline Low Dose","Xan_Lo","2013-07-24",-7],[40,"CDISCPILOT01","701","DM","01-701-1363","1363","2013-05-30","2013-11-27","2013-05-30","2013-11-27","","2013-11-27T10:00","","",81,"YEARS","F","BLACK OR AFRICAN AMERICAN","NOT HISPANIC OR LATINO","USA","Placebo","Pbo","Placebo","Pbo","2013-05-20",-10],[41,"CDISCPILOT01","701","DM","01-701-1369","1369","","","","","","2013-09-30","","",74,"YEARS","M","WHITE","NOT HISPANIC OR LATINO","USA","Screen Failure","Scrnfail","Screen Failure","Scrnfail","2013-09-18",null],[42,"CDISCPILOT01","701","DM","01-701-1383","1383","2013-02-04","2013-08-06","2013-02-04","2013-08-06","","2013-08-06T12:00","","",72,"YEARS","F","WHITE","NOT HISPANIC OR LATINO","USA","Xanomeline High Dose","Xan_Hi","Xanomeline High Dose","Xan_Hi","2013-01-22",-13],[43,"CDISCPILOT01","701","DM","01-701-1386","1386","","","","","","2014-01-07","","",71,"YEARS","M","WHITE","NOT HISPANIC OR LATINO","USA","Screen Failure","Scrnfail","Screen Failure","Scrnfail","2013-12-28",null],[44,"CDISCPILOT01","701","DM","01-701-1387","1387","2014-03-12","2014-03-25","2014-03-12","2014-03-25","","2014-08-27","","",87,"YEARS","F","WHITE","NOT HISPANIC OR LATINO","USA","Placebo","Pbo","Placebo","Pbo","2014-02-23",-17],[45,"CDISCPILOT01","701","DM","01-701-1392","1392","2012-10-28","2013-04-28","2012-10-28","2013-04-28","","2013-04-28T11:30","","",78,"YEARS","M","WHITE","NOT HISPANIC OR LATINO","USA","Placebo","Pbo","Placebo","Pbo","2012-10-17",-11],[46,"CDISCPILOT01","701","DM","01-701-1411","1411","","","","","","2012-11-24","","",76,"YEARS","M","BLACK OR AFRICAN AMERICAN","NOT HISPANIC OR LATINO","USA","Screen Failure","Scrnfail","Screen Failure","Scrnfail","2012-11-14",null],[47,"CDISCPILOT01","701","DM","01-701-1415","1415","2013-09-23","2014-03-24","2013-09-23","2014-03-24","","2014-03-24T12:34","","",85,"YEARS","M","WHITE","NOT HISPANIC OR LATINO","USA","Placebo","Pbo","Placebo","Pbo","2013-09-15",-8],[48,"CDISCPILOT01","701","DM","01-701-1429","1429","2013-03-19","2013-04-30","2013-03-19","2013-04-30","","2013-04-30T12:22","","",84,"YEARS","F","WHITE","NOT HISPANIC OR LATINO","USA","Xanomeline Low Dose","Xan_Lo","Xanomeline Low Dose","Xan_Lo","2013-02-25",-22],[49,"CDISCPILOT01","701","DM","01-701-1440","1440","2013-08-08","2014-02-05","2013-08-08","2014-02-05","","2014-02-05T11:25","","",70,"YEARS","M","WHITE","NOT HISPANIC OR LATINO","USA","Placebo","Pbo","Placebo","Pbo","2013-07-24",-15],[50,"CDISCPILOT01","701","DM","01-701-1442","1442","2013-10-26","2014-04-26","2013-10-26","2014-04-26","","2014-04-26T10:00","","",57,"YEARS","F","BLACK OR AFRICAN AMERICAN","NOT HISPANIC OR LATINO","USA","Xanomeline Low Dose","Xan_Lo","Xanomeline Low Dose","Xan_Lo","2013-10-17",-9],[51,"CDISCPILOT01","701","DM","01-701-1444","1444","2013-01-05","2013-02-13","2013-01-05","2013-02-12","","2013-06-20","","",63,"YEARS","M","WHITE","HISPANIC OR LATINO","USA","Xanomeline High Dose","Xan_Hi","Xanomeline High Dose","Xan_Hi","2012-12-31",-5],[52,"CDISCPILOT01","702","DM","01-702-1082","1082","2013-07-26","2013-11-17","2013-07-26","2013-10-13","","2013-11-17T12:20","","",84,"YEARS","F","WHITE","NOT HISPANIC OR LATINO","USA","Xanomeline Low Dose","Xan_Lo","Xanomeline Low Dose","Xan_Lo","2013-07-03",-23],[53,"CDISCPILOT01","703","DM","01-703-1042","1042","2013-03-02","2013-08-31","2013-03-02","2013-08-31","","2013-08-31T11:00","","",64,"YEARS","M","WHITE","NOT HISPANIC OR LATINO","USA","Placebo","Pbo","Placebo","Pbo","2013-02-23",-7],[54,"CDISCPILOT01","703","DM","01-703-1076","1076","2013-10-25","2013-12-24","2013-10-25","2013-12-24","","2014-01-21","","",69,"YEARS","M","WHITE","NOT HISPANIC OR LATINO","USA","Xanomeline High Dose","Xan_Hi","Xanomeline High Dose","Xan_Hi","2013-10-17",-8],[55,"CDISCPILOT01","703","DM","01-703-1086","1086","2012-09-02","2012-12-24","2012-09-02","2012-12-04","","2013-03-26","","",71,"YEARS","M","WHITE","NOT HISPANIC OR LATINO","USA","Xanomeline Low Dose","Xan_Lo","Xanomeline Low Dose","Xan_Lo","2012-08-22",-11],[56,"CDISCPILOT01","703","DM","01-703-1096","1096","2013-01-25","2013-03-29","2013-01-25","2013-03-16","","2013-03-29","","",81,"YEARS","F","WHITE","NOT HISPANIC OR LATINO","USA","Placebo","Pbo","Placebo","Pbo","2012-12-19",-37],[57,"CDISCPILOT01","703","DM","01-703-1100","1100","2013-03-13","2013-09-14","2013-03-13","2013-09-14","","2013-09-14T15:00","","",84,"YEARS","F","WHITE","NOT HISPANIC OR LATINO","USA","Placebo","Pbo","Placebo","Pbo","2013-02-28",-13],[58,"CDISCPILOT01","703","DM","01-703-1119","1119","2013-02-20","2013-06-13","2013-02-20","2013-06-13","","2013-08-24","","",81,"YEARS","F","WHITE","NOT HISPANIC OR LATINO","USA","Xanomeline Low Dose","Xan_Lo","Xanomeline Low Dose","Xan_Lo","2013-02-02",-18],[59,"CDISCPILOT01","703","DM","01-703-1175","1175","2013-12-20","2013-12-31","2013-12-20","2013-12-26","","2013-12-31T13:15","","",75,"YEARS","M","WHITE","NOT HISPANIC OR LATINO","USA","Placebo","Pbo","Placebo","Pbo","2013-12-13",-7],[60,"CDISCPILOT01","703","DM","01-703-1182","1182","2013-10-17","2013-12-12","2013-10-17","2013-12-11","","2014-01-14","","",84,"YEARS","M","WHITE","NOT HISPANIC OR LATINO","USA","Xanomeline Low Dose","Xan_Lo","Xanomeline Low Dose","Xan_Lo","2013-10-08",-9],[61,"CDISCPILOT01","703","DM","01-703-1197","1197","2013-06-16","2013-07-22","2013-06-16","2013-06-29","","2013-07-22","","",76,"YEARS","F","BLACK OR AFRICAN AMERICAN","NOT HISPANIC OR LATINO","USA","Xanomeline Low Dose","Xan_Lo","Xanomeline Low Dose","Xan_Lo","2013-06-01",-15],[62,"CDISCPILOT01","703","DM","01-703-1210","1210","2013-03-16","2013-09-06","2013-03-16","2013-09-06","","2013-09-06T13:30","","",72,"YEARS","F","WHITE","NOT HISPANIC OR LATINO","USA","Placebo","Pbo","Placebo","Pbo","2013-03-08",-8],[63,"CDISCPILOT01","703","DM","01-703-1258","1258","2012-07-20","2013-01-21","2012-07-20","2013-01-11","","2013-01-28","","",78,"YEARS","F","WHITE","NOT HISPANIC OR LATINO","USA","Xanomeline High Dose","Xan_Hi","Xanomeline High Dose","Xan_Hi","2012-07-10",-10],[64,"CDISCPILOT01","703","DM","01-703-1279","1279","2013-05-13","2013-06-22","2013-05-13","2013-06-03","","2013-06-22","","",72,"YEARS","F","WHITE","NOT HISPANIC OR LATINO","USA","Xanomeline Low Dose","Xan_Lo","Xanomeline Low Dose","Xan_Lo","2013-04-27",-16],[65,"CDISCPILOT01","703","DM","01-703-1295","1295","2013-11-21","2014-05-19","2013-11-21","2014-04-19","","2014-05-19T14:45","","",88,"YEARS","F","WHITE","NOT HISPANIC OR LATINO","USA","Xanomeline High Dose","Xan_Hi","Xanomeline High Dose","Xan_Hi","2013-10-24",-28],[66,"CDISCPILOT01","703","DM","01-703-1299","1299","2012-09-12","2013-03-13","2012-09-12","2013-03-13","","2013-03-27","","",81,"YEARS","F","WHITE","NOT HISPANIC OR LATINO","USA","Placebo","Pbo","Placebo","Pbo","2012-09-07",-5],[67,"CDISCPILOT01","703","DM","01-703-1335","1335","2014-03-17","2014-05-24","2014-03-17","2014-05-07","","2014-05-24T12:15","","",67,"YEARS","F","BLACK OR AFRICAN AMERICAN","NOT HISPANIC OR LATINO","USA","Xanomeline High Dose","Xan_Hi","Xanomeline High Dose","Xan_Hi","2014-02-28",-17],[68,"CDISCPILOT01","703","DM","01-703-1379","1379","2013-09-22","2014-03-21","2013-09-22","2014-03-21","","2014-03-21T10:55","","",81,"YEARS","F","BLACK OR AFRICAN AMERICAN","NOT HISPANIC OR LATINO","USA","Xanomeline Low Dose","Xan_Lo","Xanomeline Low Dose","Xan_Lo","2013-09-12",-10],[69,"CDISCPILOT01","703","DM","01-703-1396","1396","","","","","","2014-02-27","","",84,"YEARS","M","ASIAN","NOT HISPANIC OR LATINO","USA","Screen Failure","Scrnfail","Screen Failure","Scrnfail","2014-02-09",null],[70,"CDISCPILOT01","703","DM","01-703-1403","1403","2012-12-12","2012-12-19","2012-12-12","2012-12-13","","2013-01-08","","",67,"YEARS","M","WHITE","NOT HISPANIC OR LATINO","USA","Xanomeline High Dose","Xan_Hi","Xanomeline Low Dose","Xan_Lo","2012-12-05",-7],[71,"CDISCPILOT01","703","DM","01-703-1439","1439","2014-03-12","2014-09-11","2014-03-12","2014-09-11","","2014-09-11T12:40","","",76,"YEARS","F","WHITE","NOT HISPANIC OR LATINO","USA","Xanomeline High Dose","Xan_Hi","Xanomeline High Dose","Xan_Hi","2014-03-04",-8],[72,"CDISCPILOT01","704","DM","01-704-1008","1008","2013-01-13","2013-02-25","2013-01-13","2013-02-21","","2013-02-25T11:00","","",76,"YEARS","F","WHITE","NOT HISPANIC OR LATINO","USA","Xanomeline High Dose","Xan_Hi","Xanomeline High Dose","Xan_Hi","2013-01-06",-7],[73,"CDISCPILOT01","704","DM","01-704-1009","1009","2013-08-27","2013-10-02","2013-08-27","2013-09-25","","2013-10-02","","",83,"YEARS","M","WHITE","NOT HISPANIC OR LATINO","USA","Xanomeline Low Dose","Xan_Lo","Xanomeline Low Dose","Xan_Lo","2013-08-20",-7],[74,"CDISCPILOT01","704","DM","01-704-1010","1010","2014-02-21","2014-07-09","2014-02-21","2014-07-08","","2014-07-09T11:00","","",80,"YEARS","M","WHITE","NOT HISPANIC OR LATINO","USA","Placebo","Pbo","Placebo","Pbo","2014-02-08",-13],[75,"CDISCPILOT01","704","DM","01-704-1017","1017","2013-10-06","2013-11-24","2013-10-06","2013-11-18","","2013-12-06","","",77,"YEARS","M","WHITE","NOT HISPANIC OR LATINO","USA","Xanomeline High Dose","Xan_Hi","Xanomeline High Dose","Xan_Hi","2013-09-20",-16],[76,"CDISCPILOT01","704","DM","01-704-1025","1025","2013-09-27","2013-11-29","2013-09-27","2013-10-24","","2013-11-29T12:00","","",81,"YEARS","F","WHITE","NOT HISPANIC OR LATINO","USA","Xanomeline Low Dose","Xan_Lo","Xanomeline Low Dose","Xan_Lo","2013-09-18",-9],[77,"CDISCPILOT01","704","DM","01-704-1065","1065","2013-10-24","2013-12-24","2013-10-24","2013-12-22","","2014-02-17","","",75,"YEARS","M","WHITE","NOT HISPANIC OR LATINO","USA","Xanomeline High Dose","Xan_Hi","Xanomeline High Dose","Xan_Hi","2013-10-17",-7],[78,"CDISCPILOT01","704","DM","01-704-1074","1074","2014-01-22","2014-03-31","2014-01-22","2014-03-20","","2014-03-31T10:30","","",80,"YEARS","F","WHITE","NOT HISPANIC OR LATINO","USA","Xanomeline High Dose","Xan_Hi","Xanomeline High Dose","Xan_Hi","2014-01-19",-3],[79,"CDISCPILOT01","704","DM","01-704-1093","1093","2013-03-15","2013-06-20","2013-03-15","2013-06-17","","2013-12-25","","",79,"YEARS","M","WHITE","NOT HISPANIC OR LATINO","USA","Xanomeline High Dose","Xan_Hi","Xanomeline High Dose","Xan_Hi","2013-02-22",-21],[80,"CDISCPILOT01","704","DM","01-704-1114","1114","2013-01-23","2013-07-08","2013-01-23","2013-07-07","","2013-07-08T09:56","","",77,"YEARS","M","WHITE","NOT HISPANIC OR LATINO","USA","Xanomeline Low Dose","Xan_Lo","Xanomeline Low Dose","Xan_Lo","2013-01-09",-14],[81,"CDISCPILOT01","704","DM","01-704-1120","1120","2013-12-02","2014-02-03","2013-12-02","2014-02-01","","2014-03-10","","",71,"YEARS","F","WHITE","NOT HISPANIC OR LATINO","USA","Xanomeline Low Dose","Xan_Lo","Xanomeline Low Dose","Xan_Lo","2013-11-18",-14],[82,"CDISCPILOT01","704","DM","01-704-1127","1127","2013-10-02","2014-03-31","2013-10-02","2014-03-31","","2014-03-31T11:30","","",84,"YEARS","F","WHITE","NOT HISPANIC OR LATINO","USA","Placebo","Pbo","Placebo","Pbo","2013-09-16",-16],[83,"CDISCPILOT01","704","DM","01-704-1135","1135","2013-10-31","2014-05-16","2013-10-31","2014-05-16","","2014-05-16T09:45","","",74,"YEARS","F","WHITE","NOT HISPANIC OR LATINO","USA","Xanomeline Low Dose","Xan_Lo","Xanomeline Low Dose","Xan_Lo","2013-10-23",-8],[84,"CDISCPILOT01","704","DM","01-704-1164","1164","2012-09-19","2013-04-04","2012-09-19","2013-04-04","","2013-04-04","","",67,"YEARS","F","WHITE","NOT HISPANIC OR LATINO","USA","Placebo","Pbo","Placebo","Pbo","2012-09-11",-8],[85,"CDISCPILOT01","704","DM","01-704-1218","1218","2012-11-19","2013-05-27","2012-11-19","2013-05-27","","2013-05-27T11:20","","",81,"YEARS","F","WHITE","NOT HISPANIC OR LATINO","USA","Xanomeline Low Dose","Xan_Lo","Xanomeline Low Dose","Xan_Lo","2012-11-11",-8],[86,"CDISCPILOT01","704","DM","01-704-1233","1233","2013-03-21","2013-07-14","2013-03-21","2013-04-04","","2013-07-14","","",87,"YEARS","F","WHITE","NOT HISPANIC OR LATINO","USA","Placebo","Pbo","Placebo","Pbo","2013-03-08",-13],[87,"CDISCPILOT01","704","DM","01-704-1241","1241","2013-08-25","2013-10-31","2013-08-25","2013-10-09","","2014-01-22","","",86,"YEARS","M","WHITE","NOT HISPANIC OR LATINO","USA","Xanomeline High Dose","Xan_Hi","Xanomeline High Dose","Xan_Hi","2013-08-14",-11],[88,"CDISCPILOT01","704","DM","01-704-1260","1260","2012-08-30","2013-01-18","2012-08-30","2012-11-04","","2013-01-18","","",71,"YEARS","F","WHITE","NOT HISPANIC OR LATINO","USA","Placebo","Pbo","Placebo","Pbo","2012-08-23",-7],[89,"CDISCPILOT01","704","DM","01-704-1266","1266","2013-10-13","2013-12-06","2013-10-13","2013-12-06","","2014-01-03","","",82,"YEARS","M","WHITE","NOT HISPANIC OR LATINO","USA","Xanomeline High Dose","Xan_Hi","Xanomeline High Dose","Xan_Hi","2013-10-05",-8],[90,"CDISCPILOT01","704","DM","01-704-1323","1323","2013-07-08","2013-08-08","2013-07-08","2013-08-05","","2013-10-01","","",68,"YEARS","F","WHITE","NOT HISPANIC OR LATINO","USA","Xanomeline Low Dose","Xan_Lo","Xanomeline Low Dose","Xan_Lo","2013-06-13",-25],[91,"CDISCPILOT01","704","DM","01-704-1325","1325","2014-04-23","2014-08-06","2014-04-23","2014-07-04","","2014-08-06T13:30","","",81,"YEARS","M","WHITE","NOT HISPANIC OR LATINO","USA","Xanomeline Low Dose","Xan_Lo","Xanomeline Low Dose","Xan_Lo","2014-04-16",-7],[92,"CDISCPILOT01","704","DM","01-704-1332","1332","2013-12-09","2014-02-16","2013-12-09","2014-02-14","","2014-02-24","","",80,"YEARS","M","WHITE","NOT HISPANIC OR LATINO","USA","Xanomeline High Dose","Xan_Hi","Xanomeline High Dose","Xan_Hi","2013-11-24",-15],[93,"CDISCPILOT01","704","DM","01-704-1351","1351","2013-10-12","2014-04-18","2013-10-12","2014-04-18","","2014-04-18T10:30","","",70,"YEARS","M","WHITE","NOT HISPANIC OR LATINO","USA","Placebo","Pbo","Placebo","Pbo","2013-09-26",-16],[94,"CDISCPILOT01","704","DM","01-704-1388","1388","2012-12-07","2013-06-19","2012-12-07","2013-06-11","","2013-06-19T12:30","","",81,"YEARS","M","WHITE","NOT HISPANIC OR LATINO","USA","Placebo","Pbo","Placebo","Pbo","2012-11-28",-9],[95,"CDISCPILOT01","704","DM","01-704-1435","1435","2012-11-17","2013-01-12","2012-11-17","2013-01-09","","2013-01-12T12:00","","",74,"YEARS","M","WHITE","NOT HISPANIC OR LATINO","USA","Placebo","Pbo","Placebo","Pbo","2012-11-01",-16],[96,"CDISCPILOT01","704","DM","01-704-1445","1445","2014-05-11","2014-11-01","2014-05-11","2014-11-01","","2014-11-01","2014-11-01","Y",75,"YEARS","M","WHITE","NOT HISPANIC OR LATINO","USA","Placebo","Pbo","Placebo","Pbo","2014-05-01",-10],[97,"CDISCPILOT01","705","DM","01-705-1011","1011","","","","","","2013-09-13","","",75,"YEARS","F","WHITE","NOT HISPANIC OR LATINO","USA","Screen Failure","Scrnfail","Screen Failure","Scrnfail","2013-09-01",null],[98,"CDISCPILOT01","705","DM","01-705-1018","1018","2013-07-05","2013-07-12","2013-07-05","","","2013-07-12","","",69,"YEARS","F","WHITE","NOT HISPANIC OR LATINO","USA","Placebo","Pbo","Placebo","Pbo","2013-06-30",-5],[99,"CDISCPILOT01","705","DM","01-705-1031","1031","2013-11-27","2014-05-11","2013-11-27","2013-12-18","","2014-05-11T09:55","","",56,"YEARS","F","WHITE","HISPANIC OR LATINO","USA","Xanomeline Low Dose","Xan_Lo","Xanomeline Low Dose","Xan_Lo","2013-11-17",-10],[100,"CDISCPILOT01","705","DM","01-705-1058","1058","","","","","","2013-12-06","","",89,"YEARS","M","WHITE","NOT HISPANIC OR LATINO","USA","Screen Failure","Scrnfail","Screen Failure","Scrnfail","2013-12-02",null],[101,"CDISCPILOT01","705","DM","01-705-1059","1059","2013-08-05","2013-12-05","2013-08-05","2013-12-05","","2014-02-06","","",66,"YEARS","F","WHITE","NOT HISPANIC OR LATINO","USA","Placebo","Pbo","Placebo","Pbo","2013-08-02",-3],[102,"CDISCPILOT01","705","DM","01-705-1112","1112","","","","","","2014-02-24","","",78,"YEARS","M","WHITE","NOT HISPANIC OR LATINO","USA","Screen Failure","Scrnfail","Screen Failure","Scrnfail","2014-02-23",null],[103,"CDISCPILOT01","705","DM","01-705-1186","1186","2014-01-08","2014-02-07","2014-01-08","2014-01-26","","2014-02-07T15:20","","",84,"YEARS","F","WHITE","NOT HISPANIC OR LATINO","USA","Placebo","Pbo","Placebo","Pbo","2014-01-03",-5],[104,"CDISCPILOT01","705","DM","01-705-1199","1199","2013-09-16","2013-09-29","2013-09-16","2013-09-28","","2013-09-29T10:30","","",87,"YEARS","M","WHITE","NOT HISPANIC OR LATINO","USA","Xanomeline Low Dose","Xan_Lo","Xanomeline Low Dose","Xan_Lo","2013-09-11",-5],[105,"CDISCPILOT01","705","DM","01-705-1243","1243","","","","","","2013-03-04","","",70,"YEARS","F","WHITE","HISPANIC OR LATINO","USA","Screen Failure","Scrnfail","Screen Failure","Scrnfail","2013-02-26",null],[106,"CDISCPILOT01","705","DM","01-705-1280","1280","2014-01-17","2014-07-25","2014-01-17","2014-07-25","","2014-07-25","","",56,"YEARS","F","WHITE","NOT HISPANIC OR LATINO","USA","Xanomeline High Dose","Xan_Hi","Xanomeline High Dose","Xan_Hi","2014-01-11",-6],[107,"CDISCPILOT01","705","DM","01-705-1281","1281","2013-11-28","2014-03-17","2013-11-28","2014-02-27","","2014-04-20","","",73,"YEARS","F","BLACK OR AFRICAN AMERICAN","NOT HISPANIC OR LATINO","USA","Xanomeline High Dose","Xan_Hi","Xanomeline High Dose","Xan_Hi","2013-11-26",-2],[108,"CDISCPILOT01","705","DM","01-705-1282","1282","2012-12-26","2013-06-24","2012-12-26","2013-06-24","","2013-06-24T15:25","","",70,"YEARS","F","BLACK OR AFRICAN AMERICAN","NOT HISPANIC OR LATINO","USA","Placebo","Pbo","Placebo","Pbo","2012-12-23",-3],[109,"CDISCPILOT01","705","DM","01-705-1292","1292","2013-10-14","2014-05-14","2013-10-14","2014-05-13","","2014-05-14T13:33","","",60,"YEARS","F","BLACK OR AFRICAN AMERICAN","NOT HISPANIC OR LATINO","USA","Xanomeline Low Dose","Xan_Lo","Xanomeline Low Dose","Xan_Lo","2013-10-11",-3],[110,"CDISCPILOT01","705","DM","01-705-1303","1303","2013-12-16","2014-06-02","2013-12-16","2013-12-30","","2014-06-02","","",72,"YEARS","M","WHITE","NOT HISPANIC OR LATINO","USA","Xanomeline High Dose","Xan_Hi","Xanomeline High Dose","Xan_Hi","2013-12-10",-6],[111,"CDISCPILOT01","705","DM","01-705-1310","1310","2013-11-02","2014-01-23","2013-11-02","2014-01-23","","2014-02-24","","",74,"YEARS","F","WHITE","NOT HISPANIC OR LATINO","USA","Xanomeline High Dose","Xan_Hi","Xanomeline High Dose","Xan_Hi","2013-10-26",-7],[112,"CDISCPILOT01","705","DM","01-705-1349","1349","2013-03-10","2013-09-08","2013-03-10","2013-09-08","","2013-09-08T10:10","","",86,"YEARS","F","WHITE","HISPANIC OR LATINO","USA","Placebo","Pbo","Placebo","Pbo","2013-02-24",-14],[113,"CDISCPILOT01","705","DM","01-705-1377","1377","2014-01-04","2014-03-07","2014-01-04","2014-01-25","","2014-03-07","","",63,"YEARS","F","BLACK OR AFRICAN AMERICAN","NOT HISPANIC OR LATINO","USA","Xanomeline High Dose","Xan_Hi","Xanomeline High Dose","Xan_Hi","2013-12-29",-6],[114,"CDISCPILOT01","705","DM","01-705-1382","1382","2013-05-13","2013-05-13","2013-05-13","","","2013-05-13","","",82,"YEARS","M","WHITE","NOT HISPANIC OR LATINO","USA","Xanomeline High Dose","Xan_Hi","Xanomeline Low Dose","Xan_Lo","2013-05-09",-4],[115,"CDISCPILOT01","705","DM","01-705-1393","1393","2012-09-07","2013-02-20","2012-09-07","2013-02-01","","2013-04-25","","",84,"YEARS","F","WHITE","NOT HISPANIC OR LATINO","USA","Xanomeline Low Dose","Xan_Lo","Xanomeline Low Dose","Xan_Lo","2012-09-02",-5],[116,"CDISCPILOT01","705","DM","01-705-1421","1421","","","","","","2013-01-16","","",87,"YEARS","M","WHITE","NOT HISPANIC OR LATINO","USA","Screen Failure","Scrnfail","Screen Failure","Scrnfail","2013-01-14",null],[117,"CDISCPILOT01","705","DM","01-705-1431","1431","2013-06-23","2013-12-19","2013-06-23","2013-12-19","","2013-12-19T10:05","","",68,"YEARS","F","WHITE","HISPANIC OR LATINO","USA","Xanomeline Low Dose","Xan_Lo","Xanomeline Low Dose","Xan_Lo","2013-06-16",-7],[118,"CDISCPILOT01","706","DM","01-706-1041","1041","2013-12-31","2014-07-29","2013-12-31","2014-07-28","","2014-07-29T13:45","","",64,"YEARS","F","BLACK OR AFRICAN AMERICAN","NOT HISPANIC OR LATINO","USA","Placebo","Pbo","Placebo","Pbo","2013-12-21",-10],[119,"CDISCPILOT01","706","DM","01-706-1049","1049","2013-05-14","2013-06-25","2013-05-14","2013-06-18","","2013-11-26","","",60,"YEARS","F","WHITE","NOT HISPANIC OR LATINO","USA","Xanomeline High Dose","Xan_Hi","Xanomeline High Dose","Xan_Hi","2013-04-30",-14],[120,"CDISCPILOT01","706","DM","01-706-1384","1384","2012-09-15","2012-09-29","2012-09-15","2012-09-24","","2013-06-22","","",74,"YEARS","F","WHITE","NOT HISPANIC OR LATINO","USA","Xanomeline Low Dose","Xan_Lo","Xanomeline Low Dose","Xan_Lo","2012-08-25",-21],[121,"CDISCPILOT01","707","DM","01-707-1037","1037","2013-12-20","2014-01-08","2013-12-20","2013-12-24","","2014-01-08T12:40","","",72,"YEARS","F","WHITE","NOT HISPANIC OR LATINO","USA","Xanomeline Low Dose","Xan_Lo","Xanomeline Low Dose","Xan_Lo","2013-12-12",-8],[122,"CDISCPILOT01","707","DM","01-707-1206","1206","2013-10-28","2014-04-27","2013-10-28","2014-04-26","","2014-04-27T08:00","","",65,"YEARS","M","WHITE","NOT HISPANIC OR LATINO","USA","Placebo","Pbo","Placebo","Pbo","2013-10-20",-8],[123,"CDISCPILOT01","707","DM","01-707-1276","1276","","","","","","2012-10-29","","",72,"YEARS","F","WHITE","NOT HISPANIC OR LATINO","USA","Screen Failure","Scrnfail","Screen Failure","Scrnfail","2012-10-12",null],[124,"CDISCPILOT01","707","DM","01-707-1430","1430","","","","","","2014-02-15","","",81,"YEARS","F","WHITE","NOT HISPANIC OR LATINO","USA","Screen Failure","Scrnfail","Screen Failure","Scrnfail","2014-02-14",null],[125,"CDISCPILOT01","707","DM","01-707-1434","1434","","","","","","2013-07-29","","",76,"YEARS","F","WHITE","NOT HISPANIC OR LATINO","USA","Screen Failure","Scrnfail","Screen Failure","Scrnfail","2013-07-25",null],[126,"CDISCPILOT01","708","DM","01-708-1013","1013","","","","","","2012-11-09","","",80,"YEARS","M","WHITE","NOT HISPANIC OR LATINO","USA","Screen Failure","Scrnfail","Screen Failure","Scrnfail","2012-10-13",null],[127,"CDISCPILOT01","708","DM","01-708-1019","1019","2013-12-20","2014-01-23","2013-12-20","2014-01-01","","2014-01-23T10:10","","",68,"YEARS","M","WHITE","NOT HISPANIC OR LATINO","USA","Xanomeline Low Dose","Xan_Lo","Xanomeline Low Dose","Xan_Lo","2013-12-10",-10],[128,"CDISCPILOT01","708","DM","01-708-1032","1032","2013-02-09","2013-03-09","2013-02-09","2013-03-01","","2013-03-09T10:45","","",62,"YEARS","M","WHITE","NOT HISPANIC OR LATINO","USA","Xanomeline Low Dose","Xan_Lo","Xanomeline Low Dose","Xan_Lo","2013-02-02",-7],[129,"CDISCPILOT01","708","DM","01-708-1054","1054","","","","","","2014-03-05","","",73,"YEARS","F","BLACK OR AFRICAN AMERICAN","NOT HISPANIC OR LATINO","USA","Screen Failure","Scrnfail","Screen Failure","Scrnfail","2014-02-14",null],[130,"CDISCPILOT01","708","DM","01-708-1067","1067","","","","","","2013-03-07","","",88,"YEARS","M","WHITE","NOT HISPANIC OR LATINO","USA","Screen Failure","Scrnfail","Screen Failure","Scrnfail","2013-02-07",null],[131,"CDISCPILOT01","708","DM","01-708-1084","1084","2013-05-09","2013-11-11","2013-05-09","2013-11-11","","2013-11-11T10:00","","",73,"YEARS","F","WHITE","NOT HISPANIC OR LATINO","USA","Xanomeline Low Dose","Xan_Lo","Xanomeline Low Dose","Xan_Lo","2013-05-01",-8],[132,"CDISCPILOT01","708","DM","01-708-1087","1087","2012-10-22","2013-04-28","2012-10-22","2013-04-28","","2013-04-28T12:40","","",74,"YEARS","F","WHITE","NOT HISPANIC OR LATINO","USA","Placebo","Pbo","Placebo","Pbo","2012-10-06",-16],[133,"CDISCPILOT01","708","DM","01-708-1104","1104","","","","","","2014-01-23","","",78,"YEARS","F","ASIAN","NOT HISPANIC OR LATINO","USA","Screen Failure","Scrnfail","Screen Failure","Scrnfail","2014-01-23",null],[134,"CDISCPILOT01","708","DM","01-708-1158","1158","2014-02-08","2014-03-22","2014-02-08","2014-03-21","","2014-03-22T11:15","","",81,"YEARS","F","WHITE","NOT HISPANIC OR LATINO","USA","Placebo","Pbo","Placebo","Pbo","2014-02-01",-7],[135,"CDISCPILOT01","708","DM","01-708-1171","1171","2012-12-06","2013-06-04","2012-12-06","2013-06-04","","2013-06-04","","",77,"YEARS","F","WHITE","NOT HISPANIC OR LATINO","USA","Placebo","Pbo","Placebo","Pbo","2012-11-25",-11],[136,"CDISCPILOT01","708","DM","01-708-1178","1178","2013-12-29","2014-04-06","2013-12-29","2014-04-06","","2014-04-06T08:50","","",77,"YEARS","F","BLACK OR AFRICAN AMERICAN","NOT HISPANIC OR LATINO","USA","Xanomeline High Dose","Xan_Hi","Xanomeline High Dose","Xan_Hi","2013-12-13",-16],[137,"CDISCPILOT01","708","DM","01-708-1184","1184","","","","","","2013-02-03","","",70,"YEARS","F","WHITE","NOT HISPANIC OR LATINO","USA","Screen Failure","Scrnfail","Screen Failure","Scrnfail","2013-01-14",null],[138,"CDISCPILOT01","708","DM","01-708-1213","1213","2013-02-09","2013-02-26","2013-02-09","2013-02-22","","2013-02-26","","",76,"YEARS","F","WHITE","NOT HISPANIC OR LATINO","USA","Xanomeline High Dose","Xan_Hi","Xanomeline Low Dose","Xan_Lo","2013-02-01",-8],[139,"CDISCPILOT01","708","DM","01-708-1216","1216","2012-10-24","2012-12-06","2012-10-24","2012-11-29","","2013-01-09","","",78,"YEARS","M","WHITE","NOT HISPANIC OR LATINO","USA","Xanomeline High Dose","Xan_Hi","Xanomeline High Dose","Xan_Hi","2012-10-14",-10],[140,"CDISCPILOT01","708","DM","01-708-1236","1236","2013-09-21","2013-09-26","2013-09-21","2013-09-21","","2013-09-26","","",86,"YEARS","F","WHITE","NOT HISPANIC OR LATINO","USA","Xanomeline High Dose","Xan_Hi","Xanomeline Low Dose","Xan_Lo","2013-09-08",-13],[141,"CDISCPILOT01","708","DM","01-708-1242","1242","","","","","","2012-08-13","","",80,"YEARS","M","WHITE","NOT HISPANIC OR LATINO","USA","Screen Failure","Scrnfail","Screen Failure","Scrnfail","2012-08-13",null],[142,"CDISCPILOT01","708","DM","01-708-1253","1253","2013-05-07","2013-11-05","2013-05-07","2013-11-05","","2013-11-05","","",61,"YEARS","M","WHITE","NOT HISPANIC OR LATINO","USA","Placebo","Pbo","Placebo","Pbo","2013-04-26",-11],[143,"CDISCPILOT01","708","DM","01-708-1272","1272","2013-02-06","2013-04-04","2013-02-06","2013-03-22","","2013-04-04T11:05","","",82,"YEARS","M","WHITE","NOT HISPANIC OR LATINO","USA","Xanomeline Low Dose","Xan_Lo","Xanomeline Low Dose","Xan_Lo","2013-01-22",-15],[144,"CDISCPILOT01","708","DM","01-708-1286","1286","2013-09-10","2014-03-08","2013-09-10","2014-03-08","","2014-03-08T09:50","","",80,"YEARS","F","BLACK OR AFRICAN AMERICAN","NOT HISPANIC OR LATINO","USA","Placebo","Pbo","Placebo","Pbo","2013-08-25",-16],[145,"CDISCPILOT01","708","DM","01-708-1296","1296","2013-06-14","2013-12-12","2013-06-14","2013-12-12","","2013-12-12T09:30","","",57,"YEARS","M","BLACK OR AFRICAN AMERICAN","NOT HISPANIC OR LATINO","USA","Placebo","Pbo","Placebo","Pbo","2013-06-07",-7],[146,"CDISCPILOT01","708","DM","01-708-1297","1297","2013-01-25","2013-05-08","2013-01-25","2013-05-03","","2013-06-07","","",61,"YEARS","M","WHITE","NOT HISPANIC OR LATINO","USA","Xanomeline Low Dose","Xan_Lo","Xanomeline Low Dose","Xan_Lo","2013-01-15",-10],[147,"CDISCPILOT01","708","DM","01-708-1316","1316","2013-08-23","2014-03-01","2013-08-23","2014-03-01","","2014-03-01T10:25","","",74,"YEARS","F","WHITE","NOT HISPANIC OR LATINO","USA","Placebo","Pbo","Placebo","Pbo","2013-08-15",-8],[148,"CDISCPILOT01","708","DM","01-708-1336","1336","2012-12-07","2013-06-05","2012-12-07","2013-06-05","","2013-07-05","","",73,"YEARS","M","WHITE","NOT HISPANIC OR LATINO","USA","Xanomeline High Dose","Xan_Hi","Xanomeline High Dose","Xan_Hi","2012-11-21",-16],[149,"CDISCPILOT01","708","DM","01-708-1342","1342","2012-12-29","2013-06-28","2012-12-29","2013-06-28","","2013-06-28T09:40","","",59,"YEARS","F","WHITE","NOT HISPANIC OR LATINO","USA","Placebo","Pbo","Placebo","Pbo","2012-12-21",-8],[150,"CDISCPILOT01","708","DM","01-708-1347","1347","2013-04-20","2013-06-18","2013-04-20","2013-06-18","","2013-08-02","","",61,"YEARS","F","WHITE","NOT HISPANIC OR LATINO","USA","Xanomeline High Dose","Xan_Hi","Xanomeline High Dose","Xan_Hi","2013-04-11",-9],[151,"CDISCPILOT01","708","DM","01-708-1348","1348","2013-08-05","2014-02-13","2013-08-05","2014-02-13","","2014-02-13T10:25","","",79,"YEARS","F","WHITE","NOT HISPANIC OR LATINO","USA","Xanomeline Low Dose","Xan_Lo","Xanomeline Low Dose","Xan_Lo","2013-07-28",-8],[152,"CDISCPILOT01","708","DM","01-708-1352","1352","","","","","","2013-09-29","","",87,"YEARS","F","WHITE","NOT HISPANIC OR LATINO","USA","Screen Failure","Scrnfail","Screen Failure","Scrnfail","2013-09-16",null],[153,"CDISCPILOT01","708","DM","01-708-1353","1353","2013-07-04","2013-09-10","2013-07-04","2013-08-28","","2013-09-10T13:15","","",87,"YEARS","F","BLACK OR AFRICAN AMERICAN","NOT HISPANIC OR LATINO","USA","Xanomeline Low Dose","Xan_Lo","Xanomeline Low Dose","Xan_Lo","2013-06-17",-17],[154,"CDISCPILOT01","708","DM","01-708-1372","1372","2013-04-12","2013-05-10","2013-04-12","2013-04-19","","2013-05-10","","",84,"YEARS","M","WHITE","NOT HISPANIC OR LATINO","USA","Xanomeline High Dose","Xan_Hi","Xanomeline Low Dose","Xan_Lo","2013-04-03",-9],[155,"CDISCPILOT01","708","DM","01-708-1378","1378","2013-09-03","2014-01-28","2013-09-03","2014-01-28","","2014-01-28T13:00","","",67,"YEARS","M","BLACK OR AFRICAN AMERICAN","NOT HISPANIC OR LATINO","USA","Placebo","Pbo","Placebo","Pbo","2013-08-24",-10],[156,"CDISCPILOT01","708","DM","01-708-1406","1406","2013-12-26","2014-07-02","2013-12-26","2014-07-02","","2014-07-02T13:45","","",71,"YEARS","F","WHITE","NOT HISPANIC OR LATINO","USA","Xanomeline High Dose","Xan_Hi","Xanomeline High Dose","Xan_Hi","2013-12-06",-20],[157,"CDISCPILOT01","708","DM","01-708-1428","1428","2013-11-09","2014-01-31","2013-11-09","2013-12-14","","2014-01-31T11:10","","",84,"YEARS","F","WHITE","NOT HISPANIC OR LATINO","USA","Xanomeline Low Dose","Xan_Lo","Xanomeline Low Dose","Xan_Lo","2013-11-02",-7],[158,"CDISCPILOT01","709","DM","01-709-1001","1001","2013-10-08","2014-04-08","2013-10-08","2014-04-08","","2014-04-08","","",76,"YEARS","F","WHITE","NOT HISPANIC OR LATINO","USA","Placebo","Pbo","Placebo","Pbo","2013-09-20",-18],[159,"CDISCPILOT01","709","DM","01-709-1007","1007","2012-07-31","2012-09-01","2012-07-31","2012-08-28","","2012-09-07","","",54,"YEARS","F","WHITE","NOT HISPANIC OR LATINO","USA","Xanomeline Low Dose","Xan_Lo","Xanomeline Low Dose","Xan_Lo","2012-07-21",-10],[160,"CDISCPILOT01","709","DM","01-709-1020","1020","2012-12-01","2013-06-01","2012-12-01","2013-06-01","","2013-06-01T10:40","","",72,"YEARS","F","WHITE","NOT HISPANIC OR LATINO","USA","Xanomeline Low Dose","Xan_Lo","Xanomeline Low Dose","Xan_Lo","2012-11-22",-9],[161,"CDISCPILOT01","709","DM","01-709-1029","1029","2012-12-25","2013-06-26","2012-12-25","2013-06-26","","2013-06-26T10:58","","",82,"YEARS","M","WHITE","NOT HISPANIC OR LATINO","USA","Xanomeline High Dose","Xan_Hi","Xanomeline High Dose","Xan_Hi","2012-12-10",-15],[162,"CDISCPILOT01","709","DM","01-709-1081","1081","2014-01-18","2014-05-10","2014-01-18","2014-04-27","","2014-05-10T11:15","","",86,"YEARS","F","WHITE","NOT HISPANIC OR LATINO","USA","Xanomeline Low Dose","Xan_Lo","Xanomeline Low Dose","Xan_Lo","2014-01-09",-9],[163,"CDISCPILOT01","709","DM","01-709-1088","1088","2014-04-12","2014-10-09","2014-04-12","2014-10-09","","2014-10-09T13:25","","",69,"YEARS","M","WHITE","NOT HISPANIC OR LATINO","USA","Placebo","Pbo","Placebo","Pbo","2014-03-30",-13],[164,"CDISCPILOT01","709","DM","01-709-1099","1099","2013-10-25","2014-04-25","2013-10-25","2014-04-25","","2014-04-25T09:10","","",79,"YEARS","F","WHITE","NOT HISPANIC OR LATINO","USA","Xanomeline High Dose","Xan_Hi","Xanomeline High Dose","Xan_Hi","2013-10-14",-11],[165,"CDISCPILOT01","709","DM","01-709-1102","1102","2013-01-15","2013-03-31","2013-01-15","2013-03-27","","2013-05-12","","",71,"YEARS","F","WHITE","NOT HISPANIC OR LATINO","USA","Xanomeline Low Dose","Xan_Lo","Xanomeline Low Dose","Xan_Lo","2013-01-07",-8],[166,"CDISCPILOT01","709","DM","01-709-1168","1168","2013-08-02","2013-09-27","2013-08-02","2013-09-26","","2013-11-01","","",72,"YEARS","F","WHITE","NOT HISPANIC OR LATINO","USA","Xanomeline High Dose","Xan_Hi","Xanomeline High Dose","Xan_Hi","2013-07-25",-8],[167,"CDISCPILOT01","709","DM","01-709-1217","1217","2013-03-04","2013-06-25","2013-03-04","2013-06-11","","2013-06-25T10:35","","",77,"YEARS","M","WHITE","NOT HISPANIC OR LATINO","USA","Xanomeline Low Dose","Xan_Lo","Xanomeline Low Dose","Xan_Lo","2013-02-16",-16],[168,"CDISCPILOT01","709","DM","01-709-1224","1224","","","","","","2013-11-24","","",84,"YEARS","M","WHITE","NOT HISPANIC OR LATINO","USA","Screen Failure","Scrnfail","Screen Failure","Scrnfail","2013-11-18",null],[169,"CDISCPILOT01","709","DM","01-709-1237","1237","","","","","","2014-03-04","","",88,"YEARS","F","WHITE","HISPANIC OR LATINO","USA","Screen Failure","Scrnfail","Screen Failure","Scrnfail","2014-01-17",null],[170,"CDISCPILOT01","709","DM","01-709-1238","1238","2013-05-15","2013-08-07","2013-05-15","2013-08-06","","2013-08-13","","",69,"YEARS","M","WHITE","NOT HISPANIC OR LATINO","USA","Xanomeline High Dose","Xan_Hi","Xanomeline High Dose","Xan_Hi","2013-05-02",-13],[171,"CDISCPILOT01","709","DM","01-709-1259","1259","2013-01-26","2013-06-13","2013-01-26","2013-06-13","","2013-06-13T12:23","","",82,"YEARS","M","WHITE","NOT HISPANIC OR LATINO","USA","Placebo","Pbo","Placebo","Pbo","2013-01-13",-13],[172,"CDISCPILOT01","709","DM","01-709-1285","1285","2013-03-24","2013-05-31","2013-03-24","2013-05-23","","2013-05-31T13:15","","",87,"YEARS","M","WHITE","NOT HISPANIC OR LATINO","USA","Xanomeline Low Dose","Xan_Lo","Xanomeline Low Dose","Xan_Lo","2013-03-17",-7],[173,"CDISCPILOT01","709","DM","01-709-1301","1301","2013-07-19","2014-01-17","2013-07-19","2014-01-17","","2014-01-17T10:07","","",62,"YEARS","F","WHITE","NOT HISPANIC OR LATINO","USA","Placebo","Pbo","Placebo","Pbo","2013-07-14",-5],[174,"CDISCPILOT01","709","DM","01-709-1306","1306","2014-02-03","2014-06-25","2014-02-03","2014-06-16","","2014-06-25T10:45","","",60,"YEARS","F","WHITE","NOT HISPANIC OR LATINO","USA","Placebo","Pbo","Placebo","Pbo","2014-01-19",-15],[175,"CDISCPILOT01","709","DM","01-709-1309","1309","2013-06-19","2013-12-19","2013-06-19","2013-12-19","","2013-12-19T10:35","","",65,"YEARS","M","WHITE","NOT HISPANIC OR LATINO","USA","Xanomeline High Dose","Xan_Hi","Xanomeline High Dose","Xan_Hi","2013-06-09",-10],[176,"CDISCPILOT01","709","DM","01-709-1312","1312","2014-04-20","2014-10-19","2014-04-20","2014-10-19","","2014-10-19T10:00","","",68,"YEARS","F","WHITE","NOT HISPANIC OR LATINO","USA","Placebo","Pbo","Placebo","Pbo","2014-04-13",-7],[177,"CDISCPILOT01","709","DM","01-709-1326","1326","2013-04-05","2013-10-02","2013-04-05","2013-10-02","","2013-10-02T09:40","","",75,"YEARS","F","WHITE","NOT HISPANIC OR LATINO","USA","Xanomeline Low Dose","Xan_Lo","Xanomeline Low Dose","Xan_Lo","2013-03-21",-15],[178,"CDISCPILOT01","709","DM","01-709-1329","1329","2013-08-15","2013-08-29","2013-08-15","2013-08-25","","2013-08-29T10:35","","",70,"YEARS","M","WHITE","NOT HISPANIC OR LATINO","USA","Xanomeline High Dose","Xan_Hi","Xanomeline Low Dose","Xan_Lo","2013-08-01",-14],[179,"CDISCPILOT01","709","DM","01-709-1339","1339","2012-12-23","2013-06-24","2012-12-23","2013-06-24","","2013-06-24T10:10","","",81,"YEARS","M","WHITE","NOT HISPANIC OR LATINO","USA","Placebo","Pbo","Placebo","Pbo","2012-12-15",-8],[180,"CDISCPILOT01","709","DM","01-709-1424","1424","2013-03-03","2013-03-08","2013-03-03","2013-03-07","","2013-03-17","","",77,"YEARS","M","WHITE","NOT HISPANIC OR LATINO","USA","Xanomeline High Dose","Xan_Hi","Xanomeline Low Dose","Xan_Lo","2013-02-15",-16],[181,"CDISCPILOT01","710","DM","01-710-1002","1002","2014-01-14","2014-01-18","2014-01-14","2014-01-18","","2014-01-20","","",88,"YEARS","M","WHITE","NOT HISPANIC OR LATINO","USA","Xanomeline Low Dose","Xan_Lo","Xanomeline Low Dose","Xan_Lo","2013-12-30",-15],[182,"CDISCPILOT01","710","DM","01-710-1006","1006","2013-02-10","2013-08-10","2013-02-10","2013-08-09","","2013-08-10T10:10","","",77,"YEARS","M","WHITE","NOT HISPANIC OR LATINO","USA","Xanomeline High Dose","Xan_Hi","Xanomeline High Dose","Xan_Hi","2013-01-27",-14],[183,"CDISCPILOT01","710","DM","01-710-1021","1021","2013-09-27","2013-11-12","2013-09-27","2013-10-29","","2013-11-22","","",79,"YEARS","M","BLACK OR AFRICAN AMERICAN","NOT HISPANIC OR LATINO","USA","Xanomeline High Dose","Xan_Hi","Xanomeline High Dose","Xan_Hi","2013-09-19",-8],[184,"CDISCPILOT01","710","DM","01-710-1027","1027","2014-02-28","2014-08-29","2014-02-28","2014-08-29","","2014-08-29T11:05","","",83,"YEARS","M","WHITE","NOT HISPANIC OR LATINO","USA","Placebo","Pbo","Placebo","Pbo","2014-02-03",-25],[185,"CDISCPILOT01","710","DM","01-710-1045","1045","2013-06-03","2013-08-17","2013-06-03","2013-08-13","","2013-09-08","","",83,"YEARS","F","WHITE","NOT HISPANIC OR LATINO","USA","Xanomeline Low Dose","Xan_Lo","Xanomeline Low Dose","Xan_Lo","2013-05-20",-14],[186,"CDISCPILOT01","710","DM","01-710-1053","1053","2012-12-26","2013-02-15","2012-12-26","2013-02-10","","2013-02-26T13:25","","",84,"YEARS","F","WHITE","NOT HISPANIC OR LATINO","USA","Xanomeline Low Dose","Xan_Lo","Xanomeline Low Dose","Xan_Lo","2012-12-15",-11],[187,"CDISCPILOT01","710","DM","01-710-1060","1060","2013-01-01","2013-07-05","2013-01-01","2013-07-05","","2013-07-05T14:40","","",82,"YEARS","M","WHITE","NOT HISPANIC OR LATINO","USA","Placebo","Pbo","Placebo","Pbo","2012-12-24",-8],[188,"CDISCPILOT01","710","DM","01-710-1070","1070","2012-09-08","2013-02-23","2012-09-08","2013-01-22","","2013-07-04","","",85,"YEARS","F","WHITE","NOT HISPANIC OR LATINO","USA","Xanomeline High Dose","Xan_Hi","Xanomeline High Dose","Xan_Hi","2012-08-28",-11],[189,"CDISCPILOT01","710","DM","01-710-1077","1077","2013-11-17","2014-05-18","2013-11-17","2014-05-18","","2014-05-18T09:50","","",76,"YEARS","F","WHITE","NOT HISPANIC OR LATINO","USA","Placebo","Pbo","Placebo","Pbo","2013-11-03",-14],[190,"CDISCPILOT01","710","DM","01-710-1078","1078","2013-09-17","2014-03-23","2013-09-17","2014-03-23","","2014-03-23T16:00","","",81,"YEARS","F","WHITE","NOT HISPANIC OR LATINO","USA","Placebo","Pbo","Placebo","Pbo","2013-09-06",-11],[191,"CDISCPILOT01","710","DM","01-710-1083","1083","2013-07-22","2013-08-03","2013-07-22","2013-08-01","","2013-08-03","2013-08-02","Y",89,"YEARS","F","WHITE","NOT HISPANIC OR LATINO","USA","Placebo","Pbo","Placebo","Pbo","2013-07-09",-13],[192,"CDISCPILOT01","710","DM","01-710-1129","1129","","","","","","2013-03-17","","",69,"YEARS","F","BLACK OR AFRICAN AMERICAN","NOT HISPANIC OR LATINO","USA","Screen Failure","Scrnfail","Screen Failure","Scrnfail","2013-03-05",null],[193,"CDISCPILOT01","710","DM","01-710-1137","1137","2013-10-11","2013-11-13","2013-10-11","2013-11-13","","2013-11-25","","",79,"YEARS","F","BLACK OR AFRICAN AMERICAN","NOT HISPANIC OR LATINO","USA","Xanomeline High Dose","Xan_Hi","Xanomeline High Dose","Xan_Hi","2013-10-03",-8],[194,"CDISCPILOT01","710","DM","01-710-1142","1142","2012-10-02","2012-10-23","2012-10-02","2012-10-20","","2012-10-28","","",76,"YEARS","F","WHITE","NOT HISPANIC OR LATINO","USA","Xanomeline High Dose","Xan_Hi","Xanomeline High Dose","Xan_Hi","2012-09-12",-20],[195,"CDISCPILOT01","710","DM","01-710-1149","1149","","","","","","2013-12-01","","",79,"YEARS","F","WHITE","NOT HISPANIC OR LATINO","USA","Screen Failure","Scrnfail","Screen Failure","Scrnfail","2013-11-16",null],[196,"CDISCPILOT01","710","DM","01-710-1154","1154","2014-03-29","2014-05-09","2014-03-29","2014-04-27","","2014-06-13","","",84,"YEARS","M","WHITE","HISPANIC OR LATINO","USA","Xanomeline Low Dose","Xan_Lo","Xanomeline Low Dose","Xan_Lo","2014-03-08",-21],[197,"CDISCPILOT01","710","DM","01-710-1166","1166","2012-11-30","2013-03-30","2012-11-30","2013-03-19","","2013-05-22","","",81,"YEARS","F","WHITE","NOT HISPANIC OR LATINO","USA","Xanomeline Low Dose","Xan_Lo","Xanomeline Low Dose","Xan_Lo","2012-11-10",-20],[198,"CDISCPILOT01","710","DM","01-710-1183","1183","2013-11-16","2014-05-17","2013-11-16","2014-05-17","","2014-05-17T11:55","","",80,"YEARS","F","WHITE","NOT HISPANIC OR LATINO","USA","Placebo","Pbo","Placebo","Pbo","2013-10-24",-23],[199,"CDISCPILOT01","710","DM","01-710-1187","1187","2012-11-10","2013-05-12","2012-11-10","2013-05-12","","2013-05-12T11:05","","",78,"YEARS","F","WHITE","NOT HISPANIC OR LATINO","USA","Xanomeline High Dose","Xan_Hi","Xanomeline High Dose","Xan_Hi","2012-10-26",-15],[200,"CDISCPILOT01","710","DM","01-710-1235","1235","2012-09-26","2013-03-27","2012-09-26","2013-03-27","","2013-03-27T09:35","","",56,"YEARS","F","WHITE","HISPANIC OR LATINO","USA","Xanomeline Low Dose","Xan_Lo","Xanomeline Low Dose","Xan_Lo","2012-09-13",-13],[201,"CDISCPILOT01","710","DM","01-710-1249","1249","2013-12-28","2014-06-28","2013-12-28","2014-06-28","","2014-06-28T11:05","","",79,"YEARS","M","WHITE","NOT HISPANIC OR LATINO","USA","Xanomeline High Dose","Xan_Hi","Xanomeline High Dose","Xan_Hi","2013-12-19",-9],[202,"CDISCPILOT01","710","DM","01-710-1257","1257","","","","","","2013-12-11","","",85,"YEARS","F","WHITE","NOT HISPANIC OR LATINO","USA","Screen Failure","Scrnfail","Screen Failure","Scrnfail","2013-11-29",null],[203,"CDISCPILOT01","710","DM","01-710-1264","1264","2013-06-13","2013-10-12","2013-06-13","2013-10-11","","2013-11-05","","",78,"YEARS","M","WHITE","NOT HISPANIC OR LATINO","USA","Placebo","Pbo","Placebo","Pbo","2013-06-02",-11],[204,"CDISCPILOT01","710","DM","01-710-1270","1270","2014-02-12","2014-03-01","2014-02-12","2014-03-01","","2014-03-26","","",83,"YEARS","F","WHITE","NOT HISPANIC OR LATINO","USA","Xanomeline Low Dose","Xan_Lo","Xanomeline Low Dose","Xan_Lo","2014-02-01",-11],[205,"CDISCPILOT01","710","DM","01-710-1271","1271","2012-09-27","2012-12-02","2012-09-27","2012-11-21","","2012-12-09","","",86,"YEARS","F","WHITE","NOT HISPANIC OR LATINO","USA","Placebo","Pbo","Placebo","Pbo","2012-09-04",-23],[206,"CDISCPILOT01","710","DM","01-710-1278","1278","2012-12-24","2013-03-03","2012-12-24","2013-02-26","","2013-03-10","","",81,"YEARS","M","WHITE","NOT HISPANIC OR LATINO","USA","Xanomeline High Dose","Xan_Hi","Xanomeline High Dose","Xan_Hi","2012-12-13",-11],[207,"CDISCPILOT01","710","DM","01-710-1300","1300","2012-12-15","2013-02-19","2012-12-15","2013-02-15","","2013-03-19","","",78,"YEARS","F","WHITE","NOT HISPANIC OR LATINO","USA","Xanomeline Low Dose","Xan_Lo","Xanomeline Low Dose","Xan_Lo","2012-12-04",-11],[208,"CDISCPILOT01","710","DM","01-710-1314","1314","2013-04-24","2013-05-25","2013-04-24","2013-05-23","","2013-05-25","","",78,"YEARS","F","WHITE","NOT HISPANIC OR LATINO","USA","Placebo","Pbo","Placebo","Pbo","2013-04-21",-3],[209,"CDISCPILOT01","710","DM","01-710-1315","1315","2013-02-27","2013-07-16","2013-02-27","2013-07-06","","2013-09-02","","",83,"YEARS","F","WHITE","NOT HISPANIC OR LATINO","USA","Placebo","Pbo","Placebo","Pbo","2013-02-12",-15],[210,"CDISCPILOT01","710","DM","01-710-1337","1337","","","","","","2014-01-26","","",73,"YEARS","M","WHITE","NOT HISPANIC OR LATINO","USA","Screen Failure","Scrnfail","Screen Failure","Scrnfail","2013-12-30",null],[211,"CDISCPILOT01","710","DM","01-710-1354","1354","2012-11-11","2013-05-01","2012-11-11","2013-05-01","","2013-05-01T14:05","","",73,"YEARS","M","WHITE","NOT HISPANIC OR LATINO","USA","Xanomeline High Dose","Xan_Hi","Xanomeline High Dose","Xan_Hi","2012-10-29",-13],[212,"CDISCPILOT01","710","DM","01-710-1358","1358","2012-09-17","2013-03-12","2012-09-17","2013-02-09","","2013-03-12","","",82,"YEARS","M","WHITE","NOT HISPANIC OR LATINO","USA","Xanomeline Low Dose","Xan_Lo","Xanomeline Low Dose","Xan_Lo","2012-09-02",-15],[213,"CDISCPILOT01","710","DM","01-710-1368","1368","2013-10-23","2014-04-24","2013-10-23","2014-04-24","","2014-04-24T10:10","","",88,"YEARS","F","WHITE","NOT HISPANIC OR LATINO","USA","Placebo","Pbo","Placebo","Pbo","2013-10-21",-2],[214,"CDISCPILOT01","710","DM","01-710-1376","1376","","","","","","2014-05-02","","",89,"YEARS","F","WHITE","NOT HISPANIC OR LATINO","USA","Screen Failure","Scrnfail","Screen Failure","Scrnfail","2014-04-21",null],[215,"CDISCPILOT01","710","DM","01-710-1380","1380","","","","","","2013-06-12","","",80,"YEARS","F","WHITE","NOT HISPANIC OR LATINO","USA","Screen Failure","Scrnfail","Screen Failure","Scrnfail","2013-06-02",null],[216,"CDISCPILOT01","710","DM","01-710-1385","1385","2012-10-29","2013-02-18","2012-10-29","2013-02-18","","2013-02-24","","",77,"YEARS","M","WHITE","NOT HISPANIC OR LATINO","USA","Xanomeline Low Dose","Xan_Lo","Xanomeline Low Dose","Xan_Lo","2012-10-21",-8],[217,"CDISCPILOT01","710","DM","01-710-1408","1408","2013-01-05","2013-07-12","2013-01-05","2013-07-12","","2013-07-12T14:35","","",80,"YEARS","M","WHITE","NOT HISPANIC OR LATINO","USA","Xanomeline High Dose","Xan_Hi","Xanomeline High Dose","Xan_Hi","2012-12-26",-10],[218,"CDISCPILOT01","710","DM","01-710-1443","1443","","","","","","2013-12-14","","",88,"YEARS","F","WHITE","NOT HISPANIC OR LATINO","USA","Screen Failure","Scrnfail","Screen Failure","Scrnfail","2013-12-13",null],[219,"CDISCPILOT01","711","DM","01-711-1012","1012","2013-04-03","2013-05-02","2013-04-03","2013-04-29","","2013-09-18","","",67,"YEARS","F","WHITE","NOT HISPANIC OR LATINO","USA","Xanomeline High Dose","Xan_Hi","Xanomeline High Dose","Xan_Hi","2013-03-20",-14],[220,"CDISCPILOT01","711","DM","01-711-1022","1022","","","","","","2014-03-17","","",86,"YEARS","F","WHITE","NOT HISPANIC OR LATINO","USA","Screen Failure","Scrnfail","Screen Failure","Scrnfail","2014-03-17",null],[221,"CDISCPILOT01","711","DM","01-711-1036","1036","2012-07-29","2013-02-10","2012-07-29","2013-02-10","","2013-02-10T10:25","","",70,"YEARS","M","BLACK OR AFRICAN AMERICAN","NOT HISPANIC OR LATINO","USA","Placebo","Pbo","Placebo","Pbo","2012-07-20",-9],[222,"CDISCPILOT01","711","DM","01-711-1143","1143","2013-04-03","2013-06-01","2013-04-03","2013-05-30","","2013-09-22","","",76,"YEARS","F","WHITE","NOT HISPANIC OR LATINO","USA","Xanomeline Low Dose","Xan_Lo","Xanomeline Low Dose","Xan_Lo","2013-03-30",-4],[223,"CDISCPILOT01","711","DM","01-711-1163","1163","","","","","","2012-11-08","","",74,"YEARS","F","BLACK OR AFRICAN AMERICAN","NOT HISPANIC OR LATINO","USA","Screen Failure","Scrnfail","Screen Failure","Scrnfail","2012-11-08",null],[224,"CDISCPILOT01","711","DM","01-711-1173","1173","","","","","","2012-10-04","","",62,"YEARS","M","WHITE","NOT HISPANIC OR LATINO","USA","Screen Failure","Scrnfail","Screen Failure","Scrnfail","2012-10-04",null],[225,"CDISCPILOT01","711","DM","01-711-1226","1226","","","","","","2013-10-24","","",74,"YEARS","F","WHITE","NOT HISPANIC OR LATINO","USA","Screen Failure","Scrnfail","Screen Failure","Scrnfail","2013-10-24",null],[226,"CDISCPILOT01","711","DM","01-711-1251","1251","","","","","","2014-02-28","","",82,"YEARS","M","WHITE","NOT HISPANIC OR LATINO","USA","Screen Failure","Scrnfail","Screen Failure","Scrnfail","2014-02-28",null],[227,"CDISCPILOT01","711","DM","01-711-1283","1283","","","","","","2014-03-27","","",75,"YEARS","F","BLACK OR AFRICAN AMERICAN","NOT HISPANIC OR LATINO","USA","Screen Failure","Scrnfail","Screen Failure","Scrnfail","2014-03-27",null],[228,"CDISCPILOT01","711","DM","01-711-1284","1284","","","","","","2013-08-05","","",77,"YEARS","F","WHITE","NOT HISPANIC OR LATINO","USA","Screen Failure","Scrnfail","Screen Failure","Scrnfail","2013-08-05",null],[229,"CDISCPILOT01","711","DM","01-711-1290","1290","","","","","","2013-12-20","","",61,"YEARS","F","WHITE","NOT HISPANIC OR LATINO","USA","Screen Failure","Scrnfail","Screen Failure","Scrnfail","2013-12-20",null],[230,"CDISCPILOT01","711","DM","01-711-1433","1433","2013-01-27","2013-02-06","2013-01-27","2013-02-05","","2013-02-06T10:52","","",84,"YEARS","F","WHITE","NOT HISPANIC OR LATINO","USA","Xanomeline High Dose","Xan_Hi","Xanomeline Low Dose","Xan_Lo","2013-01-23",-4],[231,"CDISCPILOT01","713","DM","01-713-1043","1043","2013-09-15","2014-03-24","2013-09-15","2014-03-24","","2014-03-24T14:30","","",78,"YEARS","F","WHITE","NOT HISPANIC OR LATINO","USA","Xanomeline Low Dose","Xan_Lo","Xanomeline Low Dose","Xan_Lo","2013-08-17",-29],[232,"CDISCPILOT01","713","DM","01-713-1073","1073","2014-03-30","2014-10-05","2014-03-30","2014-10-05","","2014-10-05T10:30","","",74,"YEARS","F","BLACK OR AFRICAN AMERICAN","NOT HISPANIC OR LATINO","USA","Xanomeline Low Dose","Xan_Lo","Xanomeline Low Dose","Xan_Lo","2014-03-15",-15],[233,"CDISCPILOT01","713","DM","01-713-1106","1106","2012-10-31","2013-05-06","2012-10-31","2013-05-06","","2013-05-06T11:25","","",74,"YEARS","M","WHITE","NOT HISPANIC OR LATINO","USA","Xanomeline High Dose","Xan_Hi","Xanomeline High Dose","Xan_Hi","2012-10-03",-28],[234,"CDISCPILOT01","713","DM","01-713-1141","1141","2013-05-31","2013-08-06","2013-05-31","2013-07-01","","2013-08-06T12:00","","",79,"YEARS","M","WHITE","NOT HISPANIC OR LATINO","USA","Xanomeline High Dose","Xan_Hi","Xanomeline High Dose","Xan_Hi","2013-05-23",-8],[235,"CDISCPILOT01","713","DM","01-713-1179","1179","2013-08-09","2014-02-05","2013-08-09","2014-02-05","","2014-02-05T15:15","","",64,"YEARS","F","WHITE","NOT HISPANIC OR LATINO","USA","Placebo","Pbo","Placebo","Pbo","2013-07-11",-29],[236,"CDISCPILOT01","713","DM","01-713-1209","1209","2013-05-27","2013-11-22","2013-05-27","2013-11-22","","2013-11-22T10:05","","",77,"YEARS","F","WHITE","NOT HISPANIC OR LATINO","USA","Xanomeline High Dose","Xan_Hi","Xanomeline High Dose","Xan_Hi","2013-05-16",-11],[237,"CDISCPILOT01","713","DM","01-713-1256","1256","2012-09-19","2013-03-25","2012-09-19","2013-03-25","","2013-03-25T10:30","","",71,"YEARS","M","WHITE","NOT HISPANIC OR LATINO","USA","Placebo","Pbo","Placebo","Pbo","2012-09-10",-9],[238,"CDISCPILOT01","713","DM","01-713-1269","1269","2014-01-27","2014-07-28","2014-01-27","2014-07-28","","2014-07-28T14:00","","",73,"YEARS","M","WHITE","NOT HISPANIC OR LATINO","USA","Placebo","Pbo","Placebo","Pbo","2014-01-14",-13],[239,"CDISCPILOT01","713","DM","01-713-1448","1448","2014-01-19","2014-05-17","2014-01-19","2014-05-16","","2014-07-27","","",71,"YEARS","F","WHITE","NOT HISPANIC OR LATINO","USA","Xanomeline Low Dose","Xan_Lo","Xanomeline Low Dose","Xan_Lo","2014-01-05",-14],[240,"CDISCPILOT01","714","DM","01-714-1035","1035","2014-04-17","2014-10-16","2014-04-17","2014-10-16","","2014-10-16T12:00","","",88,"YEARS","F","WHITE","NOT HISPANIC OR LATINO","USA","Placebo","Pbo","Placebo","Pbo","2014-04-03",-14],[241,"CDISCPILOT01","714","DM","01-714-1068","1068","2013-08-08","2013-10-16","2013-08-08","2013-10-08","","2013-10-23","","",79,"YEARS","F","WHITE","NOT HISPANIC OR LATINO","USA","Xanomeline Low Dose","Xan_Lo","Xanomeline Low Dose","Xan_Lo","2013-07-31",-8],[242,"CDISCPILOT01","714","DM","01-714-1195","1195","2013-04-26","2013-10-23","2013-04-26","2013-10-23","","2013-10-23T10:55","","",75,"YEARS","M","WHITE","NOT HISPANIC OR LATINO","USA","Xanomeline Low Dose","Xan_Lo","Xanomeline Low Dose","Xan_Lo","2013-04-16",-10],[243,"CDISCPILOT01","714","DM","01-714-1288","1288","2013-12-04","2014-06-17","2013-12-04","2014-06-17","","2014-06-17T13:00","","",77,"YEARS","M","BLACK OR AFRICAN AMERICAN","NOT HISPANIC OR LATINO","USA","Xanomeline High Dose","Xan_Hi","Xanomeline High Dose","Xan_Hi","2013-11-24",-10],[244,"CDISCPILOT01","714","DM","01-714-1375","1375","2013-02-26","2013-09-07","2013-02-26","2013-09-07","","2013-09-07T13:58","","",78,"YEARS","F","WHITE","NOT HISPANIC OR LATINO","USA","Placebo","Pbo","Placebo","Pbo","2013-02-23",-3],[245,"CDISCPILOT01","714","DM","01-714-1425","1425","2013-08-15","2013-08-22","2013-08-15","2013-08-19","","2013-08-22T14:55","","",81,"YEARS","M","WHITE","NOT HISPANIC OR LATINO","USA","Xanomeline High Dose","Xan_Hi","Xanomeline Low Dose","Xan_Lo","2013-08-11",-4],[246,"CDISCPILOT01","715","DM","01-715-1085","1085","2013-02-16","2013-08-18","2013-02-16","2013-08-18","","2013-08-18T10:22","","",77,"YEARS","F","WHITE","NOT HISPANIC OR LATINO","USA","Xanomeline Low Dose","Xan_Lo","Xanomeline Low Dose","Xan_Lo","2013-02-03",-13],[247,"CDISCPILOT01","715","DM","01-715-1107","1107","2013-02-26","2013-05-13","2013-02-26","2013-05-07","","2013-08-14T09:52","","",65,"YEARS","M","WHITE","NOT HISPANIC OR LATINO","USA","Xanomeline Low Dose","Xan_Lo","Xanomeline Low Dose","Xan_Lo","2013-02-12",-14],[248,"CDISCPILOT01","715","DM","01-715-1134","1134","","","","","","2014-05-21","","",50,"YEARS","F","WHITE","NOT HISPANIC OR LATINO","USA","Screen Failure","Scrnfail","Screen Failure","Scrnfail","2014-04-17",null],[249,"CDISCPILOT01","715","DM","01-715-1155","1155","2013-12-13","2014-04-26","2013-12-13","2014-01-25","","2014-04-26","","",59,"YEARS","F","WHITE","NOT HISPANIC OR LATINO","USA","Placebo","Pbo","Placebo","Pbo","2013-11-29",-14],[250,"CDISCPILOT01","715","DM","01-715-1207","1207","2012-11-18","2013-06-01","2012-11-18","2013-05-27","","2013-06-01T09:30","","",78,"YEARS","F","WHITE","NOT HISPANIC OR LATINO","USA","Placebo","Pbo","Placebo","Pbo","2012-11-12",-6],[251,"CDISCPILOT01","715","DM","01-715-1225","1225","","","","","","2013-05-07","","",77,"YEARS","F","WHITE","NOT HISPANIC OR LATINO","USA","Screen Failure","Scrnfail","Screen Failure","Scrnfail","2013-01-22",null],[252,"CDISCPILOT01","715","DM","01-715-1319","1319","2013-02-17","2013-03-18","2013-02-17","2013-03-05","","2013-03-18T10:28","","",65,"YEARS","M","WHITE","NOT HISPANIC OR LATINO","USA","Xanomeline High Dose","Xan_Hi","Xanomeline High Dose","Xan_Hi","2013-02-03",-14],[253,"CDISCPILOT01","715","DM","01-715-1321","1321","2014-02-11","2014-04-22","2014-02-11","2014-04-21","","2014-04-22T11:12","","",75,"YEARS","F","WHITE","NOT HISPANIC OR LATINO","USA","Xanomeline High Dose","Xan_Hi","Xanomeline High Dose","Xan_Hi","2014-02-06",-5],[254,"CDISCPILOT01","715","DM","01-715-1333","1333","","","","","","2013-11-03","","",75,"YEARS","F","WHITE","NOT HISPANIC OR LATINO","USA","Screen Failure","Scrnfail","Screen Failure","Scrnfail","2013-06-03",null],[255,"CDISCPILOT01","715","DM","01-715-1397","1397","2013-04-03","2013-10-03","2013-04-03","2013-10-02","","2013-10-03T10:50","","",76,"YEARS","F","WHITE","NOT HISPANIC OR LATINO","USA","Placebo","Pbo","Placebo","Pbo","2013-03-20",-14],[256,"CDISCPILOT01","715","DM","01-715-1405","1405","2013-07-06","2013-07-13","2013-07-06","2013-07-07","","2014-01-11","","",69,"YEARS","M","WHITE","NOT HISPANIC OR LATINO","USA","Xanomeline Low Dose","Xan_Lo","Xanomeline Low Dose","Xan_Lo","2013-06-27",-9],[257,"CDISCPILOT01","715","DM","01-715-1407","1407","","","","","","2013-02-07","","",73,"YEARS","F","WHITE","NOT HISPANIC OR LATINO","USA","Screen Failure","Scrnfail","Screen Failure","Scrnfail","2012-10-24",null],[258,"CDISCPILOT01","716","DM","01-716-1003","1003","","","","","","2014-03-29","","",79,"YEARS","M","WHITE","HISPANIC OR LATINO","USA","Screen Failure","Scrnfail","Screen Failure","Scrnfail","2014-03-29",null],[259,"CDISCPILOT01","716","DM","01-716-1024","1024","2012-07-09","2013-01-20","2012-07-09","2013-01-20","","2013-01-20T11:10","","",87,"YEARS","F","WHITE","NOT HISPANIC OR LATINO","USA","Placebo","Pbo","Placebo","Pbo","2012-07-06",-3],[260,"CDISCPILOT01","716","DM","01-716-1026","1026","2014-04-02","2014-10-16","2014-04-02","2014-10-16","","2014-10-16T13:35","","",73,"YEARS","F","WHITE","NOT HISPANIC OR LATINO","USA","Placebo","Pbo","Placebo","Pbo","2014-03-23",-10],[261,"CDISCPILOT01","716","DM","01-716-1030","1030","2013-12-28","2014-01-10","2013-12-28","2014-01-02","","2014-01-10T12:30","","",83,"YEARS","F","WHITE","NOT HISPANIC OR LATINO","USA","Xanomeline High Dose","Xan_Hi","Xanomeline Low Dose","Xan_Lo","2013-12-25",-3],[262,"CDISCPILOT01","716","DM","01-716-1044","1044","2013-04-27","2013-11-03","2013-04-27","2013-11-03","","2013-11-03T13:10","","",74,"YEARS","M","WHITE","NOT HISPANIC OR LATINO","USA","Placebo","Pbo","Placebo","Pbo","2013-04-20",-7],[263,"CDISCPILOT01","716","DM","01-716-1061","1061","","","","","","2014-02-14","","",81,"YEARS","M","WHITE","NOT HISPANIC OR LATINO","USA","Screen Failure","Scrnfail","Screen Failure","Scrnfail","2014-02-14",null],[264,"CDISCPILOT01","716","DM","01-716-1063","1063","2013-05-09","2013-08-28","2013-05-09","2013-08-25","","2013-11-17","","",80,"YEARS","M","WHITE","NOT HISPANIC OR LATINO","USA","Xanomeline Low Dose","Xan_Lo","Xanomeline Low Dose","Xan_Lo","2013-05-06",-3],[265,"CDISCPILOT01","716","DM","01-716-1071","1071","2013-06-08","2013-08-01","2013-06-08","2013-08-01","","2013-12-16","","",78,"YEARS","F","WHITE","NOT HISPANIC OR LATINO","USA","Xanomeline High Dose","Xan_Hi","Xanomeline High Dose","Xan_Hi","2013-06-03",-5],[266,"CDISCPILOT01","716","DM","01-716-1094","1094","2012-12-19","2013-01-26","2012-12-19","2013-01-24","","2013-06-22","","",82,"YEARS","M","WHITE","NOT HISPANIC OR LATINO","USA","Xanomeline Low Dose","Xan_Lo","Xanomeline Low Dose","Xan_Lo","2012-12-16",-3],[267,"CDISCPILOT01","716","DM","01-716-1103","1103","2014-03-20","2014-09-20","2014-03-20","2014-09-20","","2014-09-20T12:10","","",79,"YEARS","M","WHITE","NOT HISPANIC OR LATINO","USA","Xanomeline Low Dose","Xan_Lo","Xanomeline Low Dose","Xan_Lo","2014-03-18",-2],[268,"CDISCPILOT01","716","DM","01-716-1108","1108","2013-02-12","2013-08-10","2013-02-12","2013-08-10","","2013-08-10T09:55","","",86,"YEARS","F","WHITE","NOT HISPANIC OR LATINO","USA","Placebo","Pbo","Placebo","Pbo","2013-02-04",-8],[269,"CDISCPILOT01","716","DM","01-716-1151","1151","2013-02-01","2013-06-07","2013-02-01","2013-05-11","","2013-08-13","","",83,"YEARS","F","WHITE","NOT HISPANIC OR LATINO","USA","Xanomeline Low Dose","Xan_Lo","Xanomeline Low Dose","Xan_Lo","2013-01-23",-9],[270,"CDISCPILOT01","716","DM","01-716-1157","1157","2013-10-02","2014-04-05","2013-10-02","2014-04-04","","2014-04-05T11:10","","",85,"YEARS","M","WHITE","NOT HISPANIC OR LATINO","USA","Xanomeline Low Dose","Xan_Lo","Xanomeline Low Dose","Xan_Lo","2013-09-23",-9],[271,"CDISCPILOT01","716","DM","01-716-1160","1160","2013-04-05","2013-10-11","2013-04-05","2013-10-11","","2013-10-11T13:30","","",83,"YEARS","F","WHITE","NOT HISPANIC OR LATINO","USA","Placebo","Pbo","Placebo","Pbo","2013-03-23",-13],[272,"CDISCPILOT01","716","DM","01-716-1167","1167","2012-10-08","2013-04-13","2012-10-08","2013-04-12","","2013-04-13T11:10","","",68,"YEARS","M","WHITE","NOT HISPANIC OR LATINO","USA","Xanomeline Low Dose","Xan_Lo","Xanomeline Low Dose","Xan_Lo","2012-09-30",-8],[273,"CDISCPILOT01","716","DM","01-716-1177","1177","2014-09-02","2015-03-05","2014-09-02","2015-03-05","","2015-03-05T14:40","","",72,"YEARS","M","WHITE","NOT HISPANIC OR LATINO","USA","Placebo","Pbo","Placebo","Pbo","2014-08-29",-4],[274,"CDISCPILOT01","716","DM","01-716-1189","1189","2012-10-09","2013-03-03","2012-10-09","2013-02-27","","2013-04-08","","",81,"YEARS","M","WHITE","NOT HISPANIC OR LATINO","USA","Xanomeline High Dose","Xan_Hi","Xanomeline High Dose","Xan_Hi","2012-10-07",-2],[275,"CDISCPILOT01","716","DM","01-716-1229","1229","2013-02-20","2013-04-02","2013-02-20","2013-03-31","","2013-04-02T11:15","","",73,"YEARS","F","WHITE","NOT HISPANIC OR LATINO","USA","Xanomeline High Dose","Xan_Hi","Xanomeline High Dose","Xan_Hi","2013-02-14",-6],[276,"CDISCPILOT01","716","DM","01-716-1244","1244","","","","","","2013-09-03","","",72,"YEARS","F","WHITE","NOT HISPANIC OR LATINO","USA","Screen Failure","Scrnfail","Screen Failure","Scrnfail","2013-08-15",null],[277,"CDISCPILOT01","716","DM","01-716-1298","1298","2013-04-08","2013-07-06","2013-04-08","2013-06-28","","2013-10-07","","",76,"YEARS","F","WHITE","NOT HISPANIC OR LATINO","USA","Xanomeline Low Dose","Xan_Lo","Xanomeline Low Dose","Xan_Lo","2013-04-04",-4],[278,"CDISCPILOT01","716","DM","01-716-1305","1305","","","","","","2013-08-28","","",73,"YEARS","F","WHITE","NOT HISPANIC OR LATINO","USA","Screen Failure","Scrnfail","Screen Failure","Scrnfail","2013-08-06",null],[279,"CDISCPILOT01","716","DM","01-716-1308","1308","2013-08-28","2013-10-07","2013-08-28","2013-10-07","","2013-10-07T15:50","","",76,"YEARS","F","WHITE","NOT HISPANIC OR LATINO","USA","Placebo","Pbo","Placebo","Pbo","2013-08-23",-5],[280,"CDISCPILOT01","716","DM","01-716-1311","1311","2014-05-14","2014-09-30","2014-05-14","2014-09-21","","2014-11-15","","",78,"YEARS","M","WHITE","NOT HISPANIC OR LATINO","USA","Xanomeline Low Dose","Xan_Lo","Xanomeline Low Dose","Xan_Lo","2014-05-08",-6],[281,"CDISCPILOT01","716","DM","01-716-1331","1331","","","","","","2013-11-25","","",59,"YEARS","F","WHITE","NOT HISPANIC OR LATINO","USA","Screen Failure","Scrnfail","Screen Failure","Scrnfail","2013-11-25",null],[282,"CDISCPILOT01","716","DM","01-716-1364","1364","2013-07-04","2014-01-09","2013-07-04","2014-01-09","","2014-01-09T15:30","","",84,"YEARS","F","WHITE","NOT HISPANIC OR LATINO","USA","Xanomeline High Dose","Xan_Hi","Xanomeline High Dose","Xan_Hi","2013-06-27",-7],[283,"CDISCPILOT01","716","DM","01-716-1373","1373","2012-12-14","2013-02-28","2012-12-14","2013-02-27","","2013-02-28T10:23","","",74,"YEARS","M","WHITE","NOT HISPANIC OR LATINO","USA","Xanomeline High Dose","Xan_Hi","Xanomeline High Dose","Xan_Hi","2012-11-24",-20],[284,"CDISCPILOT01","716","DM","01-716-1418","1418","2013-05-05","2013-11-20","2013-05-05","2013-11-20","","2013-11-20T11:44","","",80,"YEARS","F","WHITE","NOT HISPANIC OR LATINO","USA","Xanomeline High Dose","Xan_Hi","Xanomeline High Dose","Xan_Hi","2013-04-27",-8],[285,"CDISCPILOT01","716","DM","01-716-1441","1441","2014-01-22","2014-07-22","2014-01-22","2014-07-22","","2014-07-22T10:00","","",85,"YEARS","M","WHITE","NOT HISPANIC OR LATINO","USA","Placebo","Pbo","Placebo","Pbo","2014-01-13",-9],[286,"CDISCPILOT01","716","DM","01-716-1447","1447","2013-12-16","2014-06-17","2013-12-16","2014-06-17","","2014-06-17T12:00","","",72,"YEARS","F","WHITE","NOT HISPANIC OR LATINO","USA","Xanomeline High Dose","Xan_Hi","Xanomeline High Dose","Xan_Hi","2013-12-10",-6],[287,"CDISCPILOT01","717","DM","01-717-1004","1004","2014-01-14","2014-07-16","2014-01-14","2014-07-16","","2014-07-16T13:21","","",80,"YEARS","F","WHITE","NOT HISPANIC OR LATINO","USA","Xanomeline Low Dose","Xan_Lo","Xanomeline Low Dose","Xan_Lo","2014-01-01",-13],[288,"CDISCPILOT01","717","DM","01-717-1109","1109","2014-01-27","2014-07-28","2014-01-27","2014-07-28","","2014-07-28T10:53","","",84,"YEARS","M","WHITE","NOT HISPANIC OR LATINO","USA","Xanomeline High Dose","Xan_Hi","Xanomeline High Dose","Xan_Hi","2014-01-20",-7],[289,"CDISCPILOT01","717","DM","01-717-1174","1174","2013-01-22","2013-07-24","2013-01-22","2013-07-24","","2013-07-24T15:15","","",73,"YEARS","M","WHITE","NOT HISPANIC OR LATINO","USA","Xanomeline High Dose","Xan_Hi","Xanomeline High Dose","Xan_Hi","2013-01-16",-6],[290,"CDISCPILOT01","717","DM","01-717-1201","1201","2013-12-19","2014-02-21","2013-12-19","2014-02-21","","2014-02-21T11:14","","",85,"YEARS","F","WHITE","NOT HISPANIC OR LATINO","USA","Placebo","Pbo","Placebo","Pbo","2013-12-12",-7],[291,"CDISCPILOT01","717","DM","01-717-1344","1344","2014-01-11","2014-03-14","2014-01-11","2014-03-14","","2014-03-14T14:14","","",64,"YEARS","F","WHITE","NOT HISPANIC OR LATINO","USA","Placebo","Pbo","Placebo","Pbo","2014-01-01",-10],[292,"CDISCPILOT01","717","DM","01-717-1357","1357","2013-05-01","2013-10-20","2013-05-01","2013-10-14","","2013-10-20T10:52","","",77,"YEARS","M","WHITE","NOT HISPANIC OR LATINO","USA","Xanomeline High Dose","Xan_Hi","Xanomeline High Dose","Xan_Hi","2013-04-21",-10],[293,"CDISCPILOT01","717","DM","01-717-1446","1446","2013-09-01","2014-03-04","2013-09-01","2014-03-03","","2014-03-17T09:52","","",75,"YEARS","F","WHITE","NOT HISPANIC OR LATINO","USA","Xanomeline Low Dose","Xan_Lo","Xanomeline Low Dose","Xan_Lo","2013-08-20",-12],[294,"CDISCPILOT01","718","DM","01-718-1066","1066","2013-07-07","2013-07-30","2013-07-07","2013-07-16","","2014-01-13","","",79,"YEARS","F","WHITE","NOT HISPANIC OR LATINO","USA","Xanomeline Low Dose","Xan_Lo","Xanomeline Low Dose","Xan_Lo","2013-06-28",-9],[295,"CDISCPILOT01","718","DM","01-718-1079","1079","2012-09-19","2012-11-06","2012-09-19","2012-10-31","","2013-03-05","","",67,"YEARS","F","WHITE","NOT HISPANIC OR LATINO","USA","Xanomeline Low Dose","Xan_Lo","Xanomeline Low Dose","Xan_Lo","2012-09-11",-8],[296,"CDISCPILOT01","718","DM","01-718-1101","1101","2013-02-17","2013-08-02","2013-02-17","2013-07-31","","2013-08-02T11:30","","",82,"YEARS","M","BLACK OR AFRICAN AMERICAN","NOT HISPANIC OR LATINO","USA","Xanomeline High Dose","Xan_Hi","Xanomeline High Dose","Xan_Hi","2013-02-01",-16],[297,"CDISCPILOT01","718","DM","01-718-1139","1139","2013-05-19","2013-11-17","2013-05-19","2013-11-17","","2013-11-17T10:30","","",77,"YEARS","M","WHITE","NOT HISPANIC OR LATINO","USA","Placebo","Pbo","Placebo","Pbo","2013-05-03",-16],[298,"CDISCPILOT01","718","DM","01-718-1150","1150","2013-01-19","2013-07-31","2013-01-19","2013-07-29","","2013-07-31T14:05","","",73,"YEARS","F","WHITE","NOT HISPANIC OR LATINO","USA","Placebo","Pbo","Placebo","Pbo","2013-01-12",-7],[299,"CDISCPILOT01","718","DM","01-718-1170","1170","2013-09-16","2013-11-03","2013-09-16","2013-10-12","","2014-03-15","","",80,"YEARS","F","WHITE","NOT HISPANIC OR LATINO","USA","Xanomeline Low Dose","Xan_Lo","Xanomeline Low Dose","Xan_Lo","2013-08-25",-22],[300,"CDISCPILOT01","718","DM","01-718-1172","1172","2013-09-21","2013-11-29","2013-09-21","2013-11-29","","2014-03-21","","",74,"YEARS","M","WHITE","NOT HISPANIC OR LATINO","USA","Placebo","Pbo","Placebo","Pbo","2013-09-15",-6],[301,"CDISCPILOT01","718","DM","01-718-1250","1250","2013-09-21","2014-02-08","2013-09-21","2014-01-31","","2014-03-08","","",82,"YEARS","F","WHITE","HISPANIC OR LATINO","USA","Xanomeline Low Dose","Xan_Lo","Xanomeline Low Dose","Xan_Lo","2013-08-21",-31],[302,"CDISCPILOT01","718","DM","01-718-1254","1254","2013-07-10","2014-01-09","2013-07-10","2014-01-09","","2014-01-09T11:10","","",78,"YEARS","M","WHITE","HISPANIC OR LATINO","USA","Xanomeline Low Dose","Xan_Lo","Xanomeline Low Dose","Xan_Lo","2013-06-28",-12],[303,"CDISCPILOT01","718","DM","01-718-1328","1328","2013-02-01","2013-05-01","2013-02-01","2013-04-18","","2013-07-24","","",86,"YEARS","M","WHITE","NOT HISPANIC OR LATINO","USA","Xanomeline High Dose","Xan_Hi","Xanomeline High Dose","Xan_Hi","2013-01-28",-4],[304,"CDISCPILOT01","718","DM","01-718-1355","1355","2013-02-28","2013-08-29","2013-02-28","2013-08-29","","2013-08-29T14:00","","",79,"YEARS","M","WHITE","NOT HISPANIC OR LATINO","USA","Placebo","Pbo","Placebo","Pbo","2013-02-12",-16],[305,"CDISCPILOT01","718","DM","01-718-1371","1371","2013-04-26","2013-08-08","2013-04-26","2013-08-01","","2013-08-08","","",69,"YEARS","F","WHITE","NOT HISPANIC OR LATINO","USA","Xanomeline High Dose","Xan_Hi","Xanomeline High Dose","Xan_Hi","2013-04-11",-15],[306,"CDISCPILOT01","718","DM","01-718-1427","1427","2012-12-17","2013-02-18","2012-12-17","2013-02-11","","2013-06-03","","",74,"YEARS","F","BLACK OR AFRICAN AMERICAN","NOT HISPANIC OR LATINO","USA","Xanomeline High Dose","Xan_Hi","Xanomeline High Dose","Xan_Hi","2012-12-13",-4]]}}}}