<?xml version="1.0" encoding="UTF-8"?>
<?xml-stylesheet type="text/xsl" href="define2-0-0.xsl"?>
<ODM
     xmlns:xlink="http://www.w3.org/1999/xlink"
     xmlns="http://www.cdisc.org/ns/odm/v1.3"
     xmlns:def="http://www.cdisc.org/ns/def/v2.0"
     ODMVersion="1.3.2"
     FileType="Snapshot"
     FileOID="CDISCPILOT01"
     CreationDateTime="2023-11-22T17:28:43Z"
     SourceSystem="Pinnacle 21 Community"
     SourceSystemVersion="4.0.2">
   <Study OID="CDISCPILOT01">
      <GlobalVariables>
         <StudyName>CDISCPILOT01</StudyName>
         <StudyDescription>Enhance original CDISCPILOT01 ADaM Datasets</StudyDescription>
         <ProtocolName/>
      </GlobalVariables>
      <MetaDataVersion OID="MDV.CDISCPILOT01" Name="Study CDISCPILOT01 Data Definitions"
                       def:DefineVersion="2.0.0"
                       def:StandardName=""
                       def:StandardVersion="">
         <def:SupplementalDoc>
            <def:DocumentRef leafID="LF.Suppdoc"/>
         </def:SupplementalDoc>
         <ItemGroupDef OID="IG.ADAE" Name="ADAE" Repeating="Yes" IsReferenceData="No"
                       SASDatasetName="ADAE"
                       Purpose=""
                       def:Structure="one record per subject per adverse event"
                       def:Class="OCCURRENCE DATA STRUCTURE"
                       def:ArchiveLocationID="LF.ADAE">
            <Description>
               <TranslatedText>Adverse Events Analysis Dataset</TranslatedText>
            </Description>
            <ItemRef ItemOID="IT.ADAE.STUDYID" Mandatory="No" OrderNumber="1"/>
            <ItemRef ItemOID="IT.ADAE.SITEID" Mandatory="No" OrderNumber="2"
                     MethodOID="MT.ADAE.SITEID"/>
            <ItemRef ItemOID="IT.ADAE.USUBJID" Mandatory="No" OrderNumber="3" KeySequence="1"/>
            <ItemRef ItemOID="IT.ADAE.TRT01P" Mandatory="No" OrderNumber="4"/>
            <ItemRef ItemOID="IT.ADAE.TRT01PN" Mandatory="No" OrderNumber="5"/>
            <ItemRef ItemOID="IT.ADAE.TRT01A" Mandatory="No" OrderNumber="6"/>
            <ItemRef ItemOID="IT.ADAE.TRT01AN" Mandatory="No" OrderNumber="7"/>
            <ItemRef ItemOID="IT.ADAE.TRTP" Mandatory="No" OrderNumber="8" MethodOID="MT.ADAE.TRTP"/>
            <ItemRef ItemOID="IT.ADAE.TRTPN" Mandatory="No" OrderNumber="9"
                     MethodOID="MT.ADAE.TRTPN"/>
            <ItemRef ItemOID="IT.ADAE.TRTA" Mandatory="No" OrderNumber="10" MethodOID="MT.ADAE.TRTA"/>
            <ItemRef ItemOID="IT.ADAE.TRTAN" Mandatory="No" OrderNumber="11"
                     MethodOID="MT.ADAE.TRTAN"/>
            <ItemRef ItemOID="IT.ADAE.AGE" Mandatory="No" OrderNumber="12" MethodOID="MT.ADAE.AGE"/>
            <ItemRef ItemOID="IT.ADAE.AGEGR1" Mandatory="No" OrderNumber="13"
                     MethodOID="MT.ADAE.AGEGR1"/>
            <ItemRef ItemOID="IT.ADAE.AGEGR1N" Mandatory="No" OrderNumber="14"
                     MethodOID="MT.ADAE.AGEGR1N"/>
            <ItemRef ItemOID="IT.ADAE.RACE" Mandatory="No" OrderNumber="15" MethodOID="MT.ADAE.RACE"/>
            <ItemRef ItemOID="IT.ADAE.RACEN" Mandatory="No" OrderNumber="16"
                     MethodOID="MT.ADAE.RACEN"/>
            <ItemRef ItemOID="IT.ADAE.SEX" Mandatory="No" OrderNumber="17" MethodOID="MT.ADAE.SEX"/>
            <ItemRef ItemOID="IT.ADAE.SAFFL" Mandatory="No" OrderNumber="18"
                     MethodOID="MT.ADAE.SAFFL"/>
            <ItemRef ItemOID="IT.ADAE.TRTSDT" Mandatory="No" OrderNumber="19"
                     MethodOID="MT.ADAE.TRTSDT"/>
            <ItemRef ItemOID="IT.ADAE.TRTEDT" Mandatory="No" OrderNumber="20"
                     MethodOID="MT.ADAE.TRTEDT"/>
            <ItemRef ItemOID="IT.ADAE.ASTDT" Mandatory="No" OrderNumber="21" KeySequence="3"
                     MethodOID="MT.ADAE.ASTDT"/>
            <ItemRef ItemOID="IT.ADAE.ASTDTF" Mandatory="No" OrderNumber="22"
                     MethodOID="MT.ADAE.ASTDTF"/>
            <ItemRef ItemOID="IT.ADAE.ASTDY" Mandatory="No" OrderNumber="23"
                     MethodOID="MT.ADAE.ASTDY"/>
            <ItemRef ItemOID="IT.ADAE.AENDT" Mandatory="No" OrderNumber="24"
                     MethodOID="MT.ADAE.AENDT"/>
            <ItemRef ItemOID="IT.ADAE.AENDY" Mandatory="No" OrderNumber="25"
                     MethodOID="MT.ADAE.AENDY"/>
            <ItemRef ItemOID="IT.ADAE.ADURN" Mandatory="No" OrderNumber="26"
                     MethodOID="MT.ADAE.ADURN"/>
            <ItemRef ItemOID="IT.ADAE.ADURU" Mandatory="No" OrderNumber="27"
                     MethodOID="MT.ADAE.ADURU"/>
            <ItemRef ItemOID="IT.ADAE.AETERM" Mandatory="No" OrderNumber="28" KeySequence="2"
                     MethodOID="MT.ADAE.AETERM"/>
            <ItemRef ItemOID="IT.ADAE.AELLT" Mandatory="No" OrderNumber="29"
                     MethodOID="MT.ADAE.AELLT"/>
            <ItemRef ItemOID="IT.ADAE.AELLTCD" Mandatory="No" OrderNumber="30"
                     MethodOID="MT.ADAE.AELLTCD"/>
            <ItemRef ItemOID="IT.ADAE.AEDECOD" Mandatory="No" OrderNumber="31"
                     MethodOID="MT.ADAE.AEDECOD"/>
            <ItemRef ItemOID="IT.ADAE.AEPTCD" Mandatory="No" OrderNumber="32"
                     MethodOID="MT.ADAE.AEPTCD"/>
            <ItemRef ItemOID="IT.ADAE.AEHLT" Mandatory="No" OrderNumber="33"
                     MethodOID="MT.ADAE.AEHLT"/>
            <ItemRef ItemOID="IT.ADAE.AEHLTCD" Mandatory="No" OrderNumber="34"
                     MethodOID="MT.ADAE.AEHLTCD"/>
            <ItemRef ItemOID="IT.ADAE.AEHLGT" Mandatory="No" OrderNumber="35"
                     MethodOID="MT.ADAE.AEHLGT"/>
            <ItemRef ItemOID="IT.ADAE.AEHLGTCD" Mandatory="No" OrderNumber="36"
                     MethodOID="MT.ADAE.AEHLGTCD"/>
            <ItemRef ItemOID="IT.ADAE.AEBODSYS" Mandatory="No" OrderNumber="37"
                     MethodOID="MT.ADAE.AEBODSYS"/>
            <ItemRef ItemOID="IT.ADAE.AESOC" Mandatory="No" OrderNumber="38"
                     MethodOID="MT.ADAE.AESOC"/>
            <ItemRef ItemOID="IT.ADAE.AESOCCD" Mandatory="No" OrderNumber="39"
                     MethodOID="MT.ADAE.AESOCCD"/>
            <ItemRef ItemOID="IT.ADAE.AESEV" Mandatory="No" OrderNumber="40"
                     MethodOID="MT.ADAE.AESEV"/>
            <ItemRef ItemOID="IT.ADAE.AESER" Mandatory="No" OrderNumber="41"
                     MethodOID="MT.ADAE.AESER"/>
            <ItemRef ItemOID="IT.ADAE.AESCAN" Mandatory="No" OrderNumber="42"
                     MethodOID="MT.ADAE.AESCAN"/>
            <ItemRef ItemOID="IT.ADAE.AESCONG" Mandatory="No" OrderNumber="43"
                     MethodOID="MT.ADAE.AESCONG"/>
            <ItemRef ItemOID="IT.ADAE.AESDISAB" Mandatory="No" OrderNumber="44"
                     MethodOID="MT.ADAE.AESDISAB"/>
            <ItemRef ItemOID="IT.ADAE.AESDTH" Mandatory="No" OrderNumber="45"
                     MethodOID="MT.ADAE.AESDTH"/>
            <ItemRef ItemOID="IT.ADAE.AESHOSP" Mandatory="No" OrderNumber="46"
                     MethodOID="MT.ADAE.AESHOSP"/>
            <ItemRef ItemOID="IT.ADAE.AESLIFE" Mandatory="No" OrderNumber="47"
                     MethodOID="MT.ADAE.AESLIFE"/>
            <ItemRef ItemOID="IT.ADAE.AESOD" Mandatory="No" OrderNumber="48"
                     MethodOID="MT.ADAE.AESOD"/>
            <ItemRef ItemOID="IT.ADAE.AEREL" Mandatory="No" OrderNumber="49"
                     MethodOID="MT.ADAE.AEREL"/>
            <ItemRef ItemOID="IT.ADAE.AEACN" Mandatory="No" OrderNumber="50"
                     MethodOID="MT.ADAE.AEACN"/>
            <ItemRef ItemOID="IT.ADAE.AEOUT" Mandatory="No" OrderNumber="51"
                     MethodOID="MT.ADAE.AEOUT"/>
            <ItemRef ItemOID="IT.ADAE.AESEQ" Mandatory="No" OrderNumber="52" KeySequence="4"
                     MethodOID="MT.ADAE.AESEQ"/>
            <ItemRef ItemOID="IT.ADAE.TRTEMFL" Mandatory="No" OrderNumber="53"
                     MethodOID="MT.ADAE.TRTEMFL"/>
            <ItemRef ItemOID="IT.ADAE.AOCCFL" Mandatory="No" OrderNumber="54"
                     MethodOID="MT.ADAE.AOCCFL"/>
            <ItemRef ItemOID="IT.ADAE.AOCCSFL" Mandatory="No" OrderNumber="55"
                     MethodOID="MT.ADAE.AOCCSFL"/>
            <ItemRef ItemOID="IT.ADAE.AOCCPFL" Mandatory="No" OrderNumber="56"
                     MethodOID="MT.ADAE.AOCCPFL"/>
            <ItemRef ItemOID="IT.ADAE.AOCC02FL" Mandatory="No" OrderNumber="57"
                     MethodOID="MT.ADAE.AOCC02FL"/>
            <ItemRef ItemOID="IT.ADAE.AOCC03FL" Mandatory="No" OrderNumber="58"
                     MethodOID="MT.ADAE.AOCC03FL"/>
            <ItemRef ItemOID="IT.ADAE.AOCC04FL" Mandatory="No" OrderNumber="59"
                     MethodOID="MT.ADAE.AOCC04FL"/>
            <ItemRef ItemOID="IT.ADAE.CQ01NAM" Mandatory="No" OrderNumber="60"
                     MethodOID="MT.ADAE.CQ01NAM"/>
            <ItemRef ItemOID="IT.ADAE.AOCC01FL" Mandatory="No" OrderNumber="61"
                     MethodOID="MT.ADAE.AOCC01FL"/>
            <Alias Context="DomainDescription" Name="AD"/>
            <def:leaf ID="LF.ADAE" xlink:href="adae.xpt">
               <def:title>adae.xpt</def:title>
            </def:leaf>
         </ItemGroupDef>
         <ItemGroupDef OID="IG.ADLBC" Name="ADLBC" Repeating="Yes" IsReferenceData="No"
                       SASDatasetName="ADLBC"
                       Purpose=""
                       def:Structure="one record per subject per parameter per analysis visit"
                       def:Class="BASIC DATA STRUCTURE"
                       def:ArchiveLocationID="LF.ADLBC">
            <Description>
               <TranslatedText>Analysis Dataset Lab Blood Chemistry</TranslatedText>
            </Description>
            <ItemRef ItemOID="IT.ADLBC.STUDYID" Mandatory="No" OrderNumber="1"/>
            <ItemRef ItemOID="IT.ADLBC.SUBJID" Mandatory="No" OrderNumber="2"/>
            <ItemRef ItemOID="IT.ADLBC.USUBJID" Mandatory="No" OrderNumber="3" KeySequence="1"/>
            <ItemRef ItemOID="IT.ADLBC.TRT01P" Mandatory="No" OrderNumber="4"/>
            <ItemRef ItemOID="IT.ADLBC.TRT01PN" Mandatory="No" OrderNumber="5"/>
            <ItemRef ItemOID="IT.ADLBC.TRT01A" Mandatory="No" OrderNumber="6"/>
            <ItemRef ItemOID="IT.ADLBC.TRT01AN" Mandatory="No" OrderNumber="7"/>
            <ItemRef ItemOID="IT.ADLBC.TRTP" Mandatory="No" OrderNumber="8"
                     MethodOID="MT.ADLBC.TRTP"/>
            <ItemRef ItemOID="IT.ADLBC.TRTPN" Mandatory="No" OrderNumber="9"
                     MethodOID="MT.ADLBC.TRTPN"/>
            <ItemRef ItemOID="IT.ADLBC.TRTA" Mandatory="No" OrderNumber="10"
                     MethodOID="MT.ADLBC.TRTA"/>
            <ItemRef ItemOID="IT.ADLBC.TRTAN" Mandatory="No" OrderNumber="11"
                     MethodOID="MT.ADLBC.TRTAN"/>
            <ItemRef ItemOID="IT.ADLBC.TRTSDT" Mandatory="No" OrderNumber="12"/>
            <ItemRef ItemOID="IT.ADLBC.TRTEDT" Mandatory="No" OrderNumber="13"/>
            <ItemRef ItemOID="IT.ADLBC.AGE" Mandatory="No" OrderNumber="14"/>
            <ItemRef ItemOID="IT.ADLBC.AGEGR1" Mandatory="No" OrderNumber="15"/>
            <ItemRef ItemOID="IT.ADLBC.AGEGR1N" Mandatory="No" OrderNumber="16"/>
            <ItemRef ItemOID="IT.ADLBC.RACE" Mandatory="No" OrderNumber="17"/>
            <ItemRef ItemOID="IT.ADLBC.RACEN" Mandatory="No" OrderNumber="18"/>
            <ItemRef ItemOID="IT.ADLBC.SEX" Mandatory="No" OrderNumber="19"/>
            <ItemRef ItemOID="IT.ADLBC.COMP24FL" Mandatory="No" OrderNumber="20"/>
            <ItemRef ItemOID="IT.ADLBC.DSRAEFL" Mandatory="No" OrderNumber="21"/>
            <ItemRef ItemOID="IT.ADLBC.SAFFL" Mandatory="No" OrderNumber="22"/>
            <ItemRef ItemOID="IT.ADLBC.AVISIT" Mandatory="No" OrderNumber="23" KeySequence="3"
                     MethodOID="MT.ADLBC.AVISIT"/>
            <ItemRef ItemOID="IT.ADLBC.AVISITN" Mandatory="No" OrderNumber="24"/>
            <ItemRef ItemOID="IT.ADLBC.ADY" Mandatory="No" OrderNumber="25" MethodOID="MT.ADLBC.ADY"/>
            <ItemRef ItemOID="IT.ADLBC.ADT" Mandatory="No" OrderNumber="26" MethodOID="MT.ADLBC.ADT"/>
            <ItemRef ItemOID="IT.ADLBC.VISIT" Mandatory="No" OrderNumber="27"/>
            <ItemRef ItemOID="IT.ADLBC.VISITNUM" Mandatory="No" OrderNumber="28"/>
            <ItemRef ItemOID="IT.ADLBC.PARAM" Mandatory="No" OrderNumber="29"
                     MethodOID="MT.ADLBC.PARAM"/>
            <ItemRef ItemOID="IT.ADLBC.PARAMCD" Mandatory="No" OrderNumber="30" KeySequence="2"/>
            <ItemRef ItemOID="IT.ADLBC.PARAMN" Mandatory="No" OrderNumber="31"
                     MethodOID="MT.ADLBC.PARAMN"/>
            <ItemRef ItemOID="IT.ADLBC.PARCAT1" Mandatory="No" OrderNumber="32"/>
            <ItemRef ItemOID="IT.ADLBC.AVAL" Mandatory="No" OrderNumber="33"/>
            <ItemRef ItemOID="IT.ADLBC.BASE" Mandatory="No" OrderNumber="34"
                     MethodOID="MT.ADLBC.BASE"/>
            <ItemRef ItemOID="IT.ADLBC.CHG" Mandatory="No" OrderNumber="35" MethodOID="MT.ADLBC.CHG"/>
            <ItemRef ItemOID="IT.ADLBC.A1LO" Mandatory="No" OrderNumber="36"
                     MethodOID="MT.ADLBC.A1LO"/>
            <ItemRef ItemOID="IT.ADLBC.A1HI" Mandatory="No" OrderNumber="37"
                     MethodOID="MT.ADLBC.A1HI"/>
            <ItemRef ItemOID="IT.ADLBC.R2A1LO" Mandatory="No" OrderNumber="38"
                     MethodOID="MT.ADLBC.R2A1LO"/>
            <ItemRef ItemOID="IT.ADLBC.R2A1HI" Mandatory="No" OrderNumber="39"
                     MethodOID="MT.ADLBC.R2A1HI"/>
            <ItemRef ItemOID="IT.ADLBC.BR2A1LO" Mandatory="No" OrderNumber="40"
                     MethodOID="MT.ADLBC.BR2A1LO"/>
            <ItemRef ItemOID="IT.ADLBC.BR2A1HI" Mandatory="No" OrderNumber="41"
                     MethodOID="MT.ADLBC.BR2A1HI"/>
            <ItemRef ItemOID="IT.ADLBC.ANL01FL" Mandatory="No" OrderNumber="42"
                     MethodOID="MT.ADLBC.ANL01FL"/>
            <ItemRef ItemOID="IT.ADLBC.ALBTRVAL" Mandatory="No" OrderNumber="43"
                     MethodOID="MT.ADLBC.ALBTRVAL"/>
            <ItemRef ItemOID="IT.ADLBC.ANRIND" Mandatory="No" OrderNumber="44"
                     MethodOID="MT.ADLBC.ANRIND"/>
            <ItemRef ItemOID="IT.ADLBC.BNRIND" Mandatory="No" OrderNumber="45"
                     MethodOID="MT.ADLBC.BNRIND"/>
            <ItemRef ItemOID="IT.ADLBC.ABLFL" Mandatory="No" OrderNumber="46"/>
            <ItemRef ItemOID="IT.ADLBC.AENTMTFL" Mandatory="No" OrderNumber="47"
                     MethodOID="MT.ADLBC.AENTMTFL"/>
            <ItemRef ItemOID="IT.ADLBC.LBSEQ" Mandatory="No" OrderNumber="48" KeySequence="4"/>
            <ItemRef ItemOID="IT.ADLBC.LBNRIND" Mandatory="No" OrderNumber="49"/>
            <ItemRef ItemOID="IT.ADLBC.LBSTRESN" Mandatory="No" OrderNumber="50"/>
            <def:leaf ID="LF.ADLBC" xlink:href="adlbc.xpt">
               <def:title>adlbc.xpt</def:title>
            </def:leaf>
         </ItemGroupDef>
         <ItemGroupDef OID="IG.ADSL" Name="ADSL" Repeating="No" IsReferenceData="No"
                       SASDatasetName="ADSL"
                       Purpose=""
                       def:Structure="one record per subject. Screen Failures are excluded."
                       def:Class="SUBJECT LEVEL ANALYSIS DATASET"
                       def:ArchiveLocationID="LF.ADSL">
            <Description>
               <TranslatedText>Subject-Level Analysis Dataset</TranslatedText>
            </Description>
            <ItemRef ItemOID="IT.ADSL.STUDYID" Mandatory="No" OrderNumber="1"/>
            <ItemRef ItemOID="IT.ADSL.USUBJID" Mandatory="No" OrderNumber="2" KeySequence="1"/>
            <ItemRef ItemOID="IT.ADSL.SUBJID" Mandatory="No" OrderNumber="3"
                     MethodOID="MT.ADSL.SUBJID"/>
            <ItemRef ItemOID="IT.ADSL.SITEID" Mandatory="No" OrderNumber="4"
                     MethodOID="MT.ADSL.SITEID"/>
            <ItemRef ItemOID="IT.ADSL.SITEGR1" Mandatory="No" OrderNumber="5"
                     MethodOID="MT.ADSL.SITEGR1"/>
            <ItemRef ItemOID="IT.ADSL.ARM" Mandatory="No" OrderNumber="6" MethodOID="MT.ADSL.ARM"/>
            <ItemRef ItemOID="IT.ADSL.ACTARM" Mandatory="No" OrderNumber="7"
                     MethodOID="MT.ADSL.ACTARM"/>
            <ItemRef ItemOID="IT.ADSL.TRT01P" Mandatory="No" OrderNumber="8"
                     MethodOID="MT.ADSL.TRT01P"/>
            <ItemRef ItemOID="IT.ADSL.TRT01PN" Mandatory="No" OrderNumber="9"
                     MethodOID="MT.ADSL.TRT01PN"/>
            <ItemRef ItemOID="IT.ADSL.TRT01A" Mandatory="No" OrderNumber="10"
                     MethodOID="MT.ADSL.TRT01A"/>
            <ItemRef ItemOID="IT.ADSL.TRT01AN" Mandatory="No" OrderNumber="11"
                     MethodOID="MT.ADSL.TRT01AN"/>
            <ItemRef ItemOID="IT.ADSL.TRTSDT" Mandatory="No" OrderNumber="12"
                     MethodOID="MT.ADSL.TRTSDT"/>
            <ItemRef ItemOID="IT.ADSL.TRTEDT" Mandatory="No" OrderNumber="13"
                     MethodOID="MT.ADSL.TRTEDT"/>
            <ItemRef ItemOID="IT.ADSL.TRTDURD" Mandatory="No" OrderNumber="14"
                     MethodOID="MT.ADSL.TRTDUR"/>
            <ItemRef ItemOID="IT.ADSL.AVGDD" Mandatory="No" OrderNumber="15"
                     MethodOID="MT.ADSL.AVGDD"/>
            <ItemRef ItemOID="IT.ADSL.CUMDOSE" Mandatory="No" OrderNumber="16"
                     MethodOID="MT.ADSL.CUMDOSE"/>
            <ItemRef ItemOID="IT.ADSL.AGE" Mandatory="No" OrderNumber="17" MethodOID="MT.ADSL.AGE"/>
            <ItemRef ItemOID="IT.ADSL.AGEGR1" Mandatory="No" OrderNumber="18"
                     MethodOID="MT.ADSL.AGEGR1"/>
            <ItemRef ItemOID="IT.ADSL.AGEGR1N" Mandatory="No" OrderNumber="19"
                     MethodOID="MT.ADSL.AGEGR1N"/>
            <ItemRef ItemOID="IT.ADSL.AGEU" Mandatory="No" OrderNumber="20" MethodOID="MT.ADSL.AGEU"/>
            <ItemRef ItemOID="IT.ADSL.RACE" Mandatory="No" OrderNumber="21" MethodOID="MT.ADSL.RACE"/>
            <ItemRef ItemOID="IT.ADSL.RACEN" Mandatory="No" OrderNumber="22"
                     MethodOID="MT.ADSL.RACEN"/>
            <ItemRef ItemOID="IT.ADSL.SEX" Mandatory="No" OrderNumber="23" MethodOID="MT.ADSL.SEX"/>
            <ItemRef ItemOID="IT.ADSL.ETHNIC" Mandatory="No" OrderNumber="24"
                     MethodOID="MT.ADSL.ETHNIC"/>
            <ItemRef ItemOID="IT.ADSL.SAFFL" Mandatory="No" OrderNumber="25"
                     MethodOID="MT.ADSL.SAFFL"/>
            <ItemRef ItemOID="IT.ADSL.ITTFL" Mandatory="No" OrderNumber="26"
                     MethodOID="MT.ADSL.ITTFL"/>
            <ItemRef ItemOID="IT.ADSL.EFFFL" Mandatory="No" OrderNumber="27"
                     MethodOID="MT.ADSL.EFFFL"/>
            <ItemRef ItemOID="IT.ADSL.COMP8FL" Mandatory="No" OrderNumber="28"
                     MethodOID="MT.ADSL.COMP8FL"/>
            <ItemRef ItemOID="IT.ADSL.COMP16FL" Mandatory="No" OrderNumber="29"
                     MethodOID="MT.ADSL.COMP16FL"/>
            <ItemRef ItemOID="IT.ADSL.COMP24FL" Mandatory="No" OrderNumber="30"
                     MethodOID="MT.ADSL.COMP24FL"/>
            <ItemRef ItemOID="IT.ADSL.DISCONFL" Mandatory="No" OrderNumber="31"
                     MethodOID="MT.ADSL.DISCONFL"/>
            <ItemRef ItemOID="IT.ADSL.DSRAEFL" Mandatory="No" OrderNumber="32"
                     MethodOID="MT.ADSL.DSRAEFL"/>
            <ItemRef ItemOID="IT.ADSL.DTHFL" Mandatory="No" OrderNumber="33"
                     MethodOID="MT.ADSL.DTHFL"/>
            <ItemRef ItemOID="IT.ADSL.BMIBL" Mandatory="No" OrderNumber="34"
                     MethodOID="MT.ADSL.BMIBL"/>
            <ItemRef ItemOID="IT.ADSL.BMIBLGR1" Mandatory="No" OrderNumber="35"
                     MethodOID="MT.ADSL.BMIBLGR1"/>
            <ItemRef ItemOID="IT.ADSL.HEIGHTBL" Mandatory="No" OrderNumber="36"
                     MethodOID="MT.ADSL.HEIGHTBL"/>
            <ItemRef ItemOID="IT.ADSL.WEIGHTBL" Mandatory="No" OrderNumber="37"
                     MethodOID="MT.ADSL.WEIGHTBL"/>
            <ItemRef ItemOID="IT.ADSL.EDUCLVL" Mandatory="No" OrderNumber="38"
                     MethodOID="MT.ADSL.EDUCLVL"/>
            <ItemRef ItemOID="IT.ADSL.DISONSDT" Mandatory="No" OrderNumber="39"
                     MethodOID="MT.ADSL.DISONSDT"/>
            <ItemRef ItemOID="IT.ADSL.DURDIS" Mandatory="No" OrderNumber="40"
                     MethodOID="MT.ADSL.DURDIS"/>
            <ItemRef ItemOID="IT.ADSL.DURDSGR1" Mandatory="No" OrderNumber="41"
                     MethodOID="MT.ADSL.DURDSGR1"/>
            <ItemRef ItemOID="IT.ADSL.VISIT1DT" Mandatory="No" OrderNumber="42"
                     MethodOID="MT.ADSL.VISIT1DT"/>
            <ItemRef ItemOID="IT.ADSL.RFSTDTC" Mandatory="No" OrderNumber="43"
                     MethodOID="MT.ADSL.RFSTDTC"/>
            <ItemRef ItemOID="IT.ADSL.RFENDTC" Mandatory="No" OrderNumber="44"
                     MethodOID="MT.ADSL.RFENDTC"/>
            <ItemRef ItemOID="IT.ADSL.VISNUMEN" Mandatory="No" OrderNumber="45"
                     MethodOID="MT.ADSL.VISNUMEN"/>
            <ItemRef ItemOID="IT.ADSL.RFENDT" Mandatory="No" OrderNumber="46"
                     MethodOID="MT.ADSL.RFENDT"/>
            <ItemRef ItemOID="IT.ADSL.DCDECOD" Mandatory="No" OrderNumber="47"
                     MethodOID="MT.ADSL.DCDECOD"/>
            <ItemRef ItemOID="IT.ADSL.EOSSTT" Mandatory="No" OrderNumber="48"
                     MethodOID="MT.ADSL.EOSSTT"/>
            <ItemRef ItemOID="IT.ADSL.DCSREAS" Mandatory="No" OrderNumber="49"
                     MethodOID="MT.ADSL.DCREASCD"/>
            <ItemRef ItemOID="IT.ADSL.MMSETOT" Mandatory="No" OrderNumber="50"
                     MethodOID="MT.ADSL.MMSETOT"/>
            <Alias Context="DomainDescription" Name="AD"/>
            <def:leaf ID="LF.ADSL" xlink:href="adsl.xpt">
               <def:title>adsl.xpt</def:title>
            </def:leaf>
         </ItemGroupDef>
         <ItemDef OID="IT.ADAE.STUDYID" Name="STUDYID" DataType="text" Length="12"
                  SASFieldName="STUDYID">
            <Description>
               <TranslatedText>Study Identifier</TranslatedText>
            </Description>
            <def:Origin Type="Predecessor">
               <Description>
                  <TranslatedText>ADSL.STUDYID</TranslatedText>
               </Description>
            </def:Origin>
         </ItemDef>
         <ItemDef OID="IT.ADAE.SITEID" Name="SITEID" DataType="text" Length="3"
                  SASFieldName="SITEID">
            <Description>
               <TranslatedText>Study Site Identifier</TranslatedText>
            </Description>
            <def:Origin Type="Derived"/>
         </ItemDef>
         <ItemDef OID="IT.ADAE.USUBJID" Name="USUBJID" DataType="text" Length="11"
                  SASFieldName="USUBJID">
            <Description>
               <TranslatedText>Unique Subject Identifier</TranslatedText>
            </Description>
            <def:Origin Type="Predecessor">
               <Description>
                  <TranslatedText>ADSL.USUBJID</TranslatedText>
               </Description>
            </def:Origin>
         </ItemDef>
         <ItemDef OID="IT.ADAE.TRT01P" Name="TRT01P" DataType="text" Length="20"
                  SASFieldName="TRT01P">
            <Description>
               <TranslatedText>Planned Treatment for Period 01</TranslatedText>
            </Description>
            <CodeListRef CodeListOID="CL.ARM"/>
            <def:Origin Type="Predecessor">
               <Description>
                  <TranslatedText>ADSL.TRT01P</TranslatedText>
               </Description>
            </def:Origin>
         </ItemDef>
         <ItemDef OID="IT.ADAE.TRT01PN" Name="TRT01PN" DataType="integer" Length="8"
                  SASFieldName="TRT01PN">
            <Description>
               <TranslatedText>Planned Treatment for Period 01 (N)</TranslatedText>
            </Description>
            <CodeListRef CodeListOID="CL.ARMN"/>
            <def:Origin Type="Predecessor">
               <Description>
                  <TranslatedText>ADSL.TRT01PN</TranslatedText>
               </Description>
            </def:Origin>
         </ItemDef>
         <ItemDef OID="IT.ADAE.TRT01A" Name="TRT01A" DataType="text" Length="20"
                  SASFieldName="TRT01A">
            <Description>
               <TranslatedText>Actual Treatment for Period 01</TranslatedText>
            </Description>
            <CodeListRef CodeListOID="CL.ARM"/>
            <def:Origin Type="Predecessor">
               <Description>
                  <TranslatedText>ADSL.TRT01A</TranslatedText>
               </Description>
            </def:Origin>
         </ItemDef>
         <ItemDef OID="IT.ADAE.TRT01AN" Name="TRT01AN" DataType="integer" Length="8"
                  SASFieldName="TRT01AN">
            <Description>
               <TranslatedText>Actual Treatment for Period 01 (N)</TranslatedText>
            </Description>
            <CodeListRef CodeListOID="CL.ARMN"/>
            <def:Origin Type="Predecessor">
               <Description>
                  <TranslatedText>ADSL.TRT01AN</TranslatedText>
               </Description>
            </def:Origin>
         </ItemDef>
         <ItemDef OID="IT.ADAE.TRTP" Name="TRTP" DataType="text" Length="20" SASFieldName="TRTP">
            <Description>
               <TranslatedText>Planned Treatment</TranslatedText>
            </Description>
            <CodeListRef CodeListOID="CL.ARM"/>
            <def:Origin Type="Derived"/>
         </ItemDef>
         <ItemDef OID="IT.ADAE.TRTPN" Name="TRTPN" DataType="integer" Length="8"
                  SASFieldName="TRTPN">
            <Description>
               <TranslatedText>Planned Treatment (N)</TranslatedText>
            </Description>
            <CodeListRef CodeListOID="CL.ARMN"/>
            <def:Origin Type="Derived"/>
         </ItemDef>
         <ItemDef OID="IT.ADAE.TRTA" Name="TRTA" DataType="text" Length="20" SASFieldName="TRTA">
            <Description>
               <TranslatedText>Actual Treatment</TranslatedText>
            </Description>
            <CodeListRef CodeListOID="CL.ARM"/>
            <def:Origin Type="Derived"/>
         </ItemDef>
         <ItemDef OID="IT.ADAE.TRTAN" Name="TRTAN" DataType="integer" Length="8"
                  SASFieldName="TRTAN">
            <Description>
               <TranslatedText>Actual Treatment (N)</TranslatedText>
            </Description>
            <CodeListRef CodeListOID="CL.ARMN"/>
            <def:Origin Type="Derived"/>
         </ItemDef>
         <ItemDef OID="IT.ADAE.AGE" Name="AGE" DataType="integer" Length="8" SASFieldName="AGE">
            <Description>
               <TranslatedText>Age</TranslatedText>
            </Description>
            <def:Origin Type="Derived"/>
         </ItemDef>
         <ItemDef OID="IT.ADAE.AGEGR1" Name="AGEGR1" DataType="text" Length="5"
                  SASFieldName="AGEGR1">
            <Description>
               <TranslatedText>Pooled Age Group 1</TranslatedText>
            </Description>
            <CodeListRef CodeListOID="CL.AGEGR1"/>
            <def:Origin Type="Derived"/>
         </ItemDef>
         <ItemDef OID="IT.ADAE.AGEGR1N" Name="AGEGR1N" DataType="integer" Length="8"
                  SASFieldName="AGEGR1N">
            <Description>
               <TranslatedText>Pooled Age Group 1 (N)</TranslatedText>
            </Description>
            <CodeListRef CodeListOID="CL.AGEGR1N"/>
            <def:Origin Type="Derived"/>
         </ItemDef>
         <ItemDef OID="IT.ADAE.RACE" Name="RACE" DataType="text" Length="32" SASFieldName="RACE">
            <Description>
               <TranslatedText>Race</TranslatedText>
            </Description>
            <CodeListRef CodeListOID="CL.RACE"/>
            <def:Origin Type="Derived"/>
         </ItemDef>
         <ItemDef OID="IT.ADAE.RACEN" Name="RACEN" DataType="integer" Length="8"
                  SASFieldName="RACEN">
            <Description>
               <TranslatedText>Race (N)</TranslatedText>
            </Description>
            <CodeListRef CodeListOID="CL.RACEN"/>
            <def:Origin Type="Derived"/>
         </ItemDef>
         <ItemDef OID="IT.ADAE.SEX" Name="SEX" DataType="text" Length="1" SASFieldName="SEX">
            <Description>
               <TranslatedText>Sex</TranslatedText>
            </Description>
            <CodeListRef CodeListOID="CL.SEX"/>
            <def:Origin Type="Derived"/>
         </ItemDef>
         <ItemDef OID="IT.ADAE.SAFFL" Name="SAFFL" DataType="text" Length="1"
                  SASFieldName="SAFFL">
            <Description>
               <TranslatedText>Safety Population Flag</TranslatedText>
            </Description>
            <CodeListRef CodeListOID="CL.YN"/>
            <def:Origin Type="Derived"/>
         </ItemDef>
         <ItemDef OID="IT.ADAE.TRTSDT" Name="TRTSDT" DataType="integer" Length="8"
                  SASFieldName="TRTSDT"
                  def:DisplayFormat="DATE9.">
            <Description>
               <TranslatedText>Date of First Exposure to Treatment</TranslatedText>
            </Description>
            <def:Origin Type="Derived"/>
         </ItemDef>
         <ItemDef OID="IT.ADAE.TRTEDT" Name="TRTEDT" DataType="integer" Length="8"
                  SASFieldName="TRTEDT"
                  def:DisplayFormat="DATE9.">
            <Description>
               <TranslatedText>Date of Last Exposure to Treatment</TranslatedText>
            </Description>
            <def:Origin Type="Derived"/>
         </ItemDef>
         <ItemDef OID="IT.ADAE.ASTDT" Name="ASTDT" DataType="integer" Length="8"
                  SASFieldName="ASTDT"
                  def:DisplayFormat="DATE9.">
            <Description>
               <TranslatedText>Analysis Start Date</TranslatedText>
            </Description>
            <def:Origin Type="Derived"/>
         </ItemDef>
         <ItemDef OID="IT.ADAE.ASTDTF" Name="ASTDTF" DataType="text" Length="1"
                  SASFieldName="ASTDTF">
            <Description>
               <TranslatedText>Analysis Start Date Imputation Flag</TranslatedText>
            </Description>
            <def:Origin Type="Derived"/>
         </ItemDef>
         <ItemDef OID="IT.ADAE.ASTDY" Name="ASTDY" DataType="integer" Length="8"
                  SASFieldName="ASTDY">
            <Description>
               <TranslatedText>Analysis Start Relative Day</TranslatedText>
            </Description>
            <def:Origin Type="Derived"/>
         </ItemDef>
         <ItemDef OID="IT.ADAE.AENDT" Name="AENDT" DataType="integer" Length="8"
                  SASFieldName="AENDT"
                  def:DisplayFormat="DATE9.">
            <Description>
               <TranslatedText>Analysis End Date</TranslatedText>
            </Description>
            <def:Origin Type="Derived"/>
         </ItemDef>
         <ItemDef OID="IT.ADAE.AENDY" Name="AENDY" DataType="integer" Length="8"
                  SASFieldName="AENDY">
            <Description>
               <TranslatedText>Analysis End Relative Day</TranslatedText>
            </Description>
            <def:Origin Type="Derived"/>
         </ItemDef>
         <ItemDef OID="IT.ADAE.ADURN" Name="ADURN" DataType="integer" Length="8"
                  SASFieldName="ADURN">
            <Description>
               <TranslatedText>Analysis Duration (N)</TranslatedText>
            </Description>
            <def:Origin Type="Derived"/>
         </ItemDef>
         <ItemDef OID="IT.ADAE.ADURU" Name="ADURU" DataType="text" Length="3"
                  SASFieldName="ADURU">
            <Description>
               <TranslatedText>Analysis Duration Units</TranslatedText>
            </Description>
            <CodeListRef CodeListOID="CL.ADURU"/>
            <def:Origin Type="Derived"/>
         </ItemDef>
         <ItemDef OID="IT.ADAE.AETERM" Name="AETERM" DataType="text" Length="46"
                  SASFieldName="AETERM">
            <Description>
               <TranslatedText>Reported Term for the Adverse Event</TranslatedText>
            </Description>
            <def:Origin Type="Derived"/>
         </ItemDef>
         <ItemDef OID="IT.ADAE.AELLT" Name="AELLT" DataType="text" Length="46"
                  SASFieldName="AELLT">
            <Description>
               <TranslatedText>Lowest Level Term</TranslatedText>
            </Description>
            <CodeListRef CodeListOID="CL.AEDICT"/>
            <def:Origin Type="Derived"/>
         </ItemDef>
         <ItemDef OID="IT.ADAE.AELLTCD" Name="AELLTCD" DataType="integer" Length="8"
                  SASFieldName="AELLTCD">
            <Description>
               <TranslatedText>Lowest Level Term Code</TranslatedText>
            </Description>
            <def:Origin Type="Derived"/>
         </ItemDef>
         <ItemDef OID="IT.ADAE.AEDECOD" Name="AEDECOD" DataType="text" Length="46"
                  SASFieldName="AEDECOD">
            <Description>
               <TranslatedText>Dictionary-Derived Term</TranslatedText>
            </Description>
            <CodeListRef CodeListOID="CL.AEDICT"/>
            <def:Origin Type="Derived"/>
         </ItemDef>
         <ItemDef OID="IT.ADAE.AEPTCD" Name="AEPTCD" DataType="integer" Length="8"
                  SASFieldName="AEPTCD">
            <Description>
               <TranslatedText>Preferred Term Code</TranslatedText>
            </Description>
            <def:Origin Type="Derived"/>
         </ItemDef>
         <ItemDef OID="IT.ADAE.AEHLT" Name="AEHLT" DataType="text" Length="8"
                  SASFieldName="AEHLT">
            <Description>
               <TranslatedText>High Level Term</TranslatedText>
            </Description>
            <CodeListRef CodeListOID="CL.AEDICT"/>
            <def:Origin Type="Derived"/>
         </ItemDef>
         <ItemDef OID="IT.ADAE.AEHLTCD" Name="AEHLTCD" DataType="integer" Length="8"
                  SASFieldName="AEHLTCD">
            <Description>
               <TranslatedText>High Level Term Code</TranslatedText>
            </Description>
            <def:Origin Type="Derived"/>
         </ItemDef>
         <ItemDef OID="IT.ADAE.AEHLGT" Name="AEHLGT" DataType="text" Length="9"
                  SASFieldName="AEHLGT">
            <Description>
               <TranslatedText>High Level Group Term</TranslatedText>
            </Description>
            <CodeListRef CodeListOID="CL.AEDICT"/>
            <def:Origin Type="Derived"/>
         </ItemDef>
         <ItemDef OID="IT.ADAE.AEHLGTCD" Name="AEHLGTCD" DataType="integer" Length="8"
                  SASFieldName="AEHLGTCD">
            <Description>
               <TranslatedText>High Level Group Term Code</TranslatedText>
            </Description>
            <def:Origin Type="Derived"/>
         </ItemDef>
         <ItemDef OID="IT.ADAE.AEBODSYS" Name="AEBODSYS" DataType="text" Length="67"
                  SASFieldName="AEBODSYS">
            <Description>
               <TranslatedText>Body System or Organ Class</TranslatedText>
            </Description>
            <CodeListRef CodeListOID="CL.AEDICT"/>
            <def:Origin Type="Derived"/>
         </ItemDef>
         <ItemDef OID="IT.ADAE.AESOC" Name="AESOC" DataType="text" Length="67"
                  SASFieldName="AESOC">
            <Description>
               <TranslatedText>Primary System Organ Class</TranslatedText>
            </Description>
            <CodeListRef CodeListOID="CL.AEDICT"/>
            <def:Origin Type="Derived"/>
         </ItemDef>
         <ItemDef OID="IT.ADAE.AESOCCD" Name="AESOCCD" DataType="integer" Length="8"
                  SASFieldName="AESOCCD">
            <Description>
               <TranslatedText>Primary System Organ Class Code</TranslatedText>
            </Description>
            <def:Origin Type="Derived"/>
         </ItemDef>
         <ItemDef OID="IT.ADAE.AESEV" Name="AESEV" DataType="text" Length="8"
                  SASFieldName="AESEV">
            <Description>
               <TranslatedText>Severity/Intensity</TranslatedText>
            </Description>
            <def:Origin Type="Derived"/>
         </ItemDef>
         <ItemDef OID="IT.ADAE.AESER" Name="AESER" DataType="text" Length="1"
                  SASFieldName="AESER">
            <Description>
               <TranslatedText>Serious Event</TranslatedText>
            </Description>
            <CodeListRef CodeListOID="CL.YN"/>
            <def:Origin Type="Derived"/>
         </ItemDef>
         <ItemDef OID="IT.ADAE.AESCAN" Name="AESCAN" DataType="text" Length="1"
                  SASFieldName="AESCAN">
            <Description>
               <TranslatedText>Involves Cancer</TranslatedText>
            </Description>
            <CodeListRef CodeListOID="CL.YN"/>
            <def:Origin Type="Derived"/>
         </ItemDef>
         <ItemDef OID="IT.ADAE.AESCONG" Name="AESCONG" DataType="text" Length="1"
                  SASFieldName="AESCONG">
            <Description>
               <TranslatedText>Congenital Anomaly or Birth Defect</TranslatedText>
            </Description>
            <CodeListRef CodeListOID="CL.YN"/>
            <def:Origin Type="Derived"/>
         </ItemDef>
         <ItemDef OID="IT.ADAE.AESDISAB" Name="AESDISAB" DataType="text" Length="1"
                  SASFieldName="AESDISAB">
            <Description>
               <TranslatedText>Persist or Signif Disability/Incapacity</TranslatedText>
            </Description>
            <CodeListRef CodeListOID="CL.YN"/>
            <def:Origin Type="Derived"/>
         </ItemDef>
         <ItemDef OID="IT.ADAE.AESDTH" Name="AESDTH" DataType="text" Length="1"
                  SASFieldName="AESDTH">
            <Description>
               <TranslatedText>Results in Death</TranslatedText>
            </Description>
            <CodeListRef CodeListOID="CL.YN"/>
            <def:Origin Type="Derived"/>
         </ItemDef>
         <ItemDef OID="IT.ADAE.AESHOSP" Name="AESHOSP" DataType="text" Length="1"
                  SASFieldName="AESHOSP">
            <Description>
               <TranslatedText>Requires or Prolongs Hospitalization</TranslatedText>
            </Description>
            <CodeListRef CodeListOID="CL.YN"/>
            <def:Origin Type="Derived"/>
         </ItemDef>
         <ItemDef OID="IT.ADAE.AESLIFE" Name="AESLIFE" DataType="text" Length="1"
                  SASFieldName="AESLIFE">
            <Description>
               <TranslatedText>Is Life Threatening</TranslatedText>
            </Description>
            <CodeListRef CodeListOID="CL.YN"/>
            <def:Origin Type="Derived"/>
         </ItemDef>
         <ItemDef OID="IT.ADAE.AESOD" Name="AESOD" DataType="text" Length="1"
                  SASFieldName="AESOD">
            <Description>
               <TranslatedText>Occurred with Overdose</TranslatedText>
            </Description>
            <CodeListRef CodeListOID="CL.YN"/>
            <def:Origin Type="Derived"/>
         </ItemDef>
         <ItemDef OID="IT.ADAE.AEREL" Name="AEREL" DataType="text" Length="8"
                  SASFieldName="AEREL">
            <Description>
               <TranslatedText>Causality</TranslatedText>
            </Description>
            <CodeListRef CodeListOID="CL.AECAUS"/>
            <def:Origin Type="Derived"/>
         </ItemDef>
         <ItemDef OID="IT.ADAE.AEACN" Name="AEACN" DataType="text" Length="1"
                  SASFieldName="AEACN">
            <Description>
               <TranslatedText>Action Taken with Study Treatment</TranslatedText>
            </Description>
            <def:Origin Type="Derived"/>
         </ItemDef>
         <ItemDef OID="IT.ADAE.AEOUT" Name="AEOUT" DataType="text" Length="26"
                  SASFieldName="AEOUT">
            <Description>
               <TranslatedText>Outcome of Adverse Event</TranslatedText>
            </Description>
            <CodeListRef CodeListOID="CL.OUT"/>
            <def:Origin Type="Derived"/>
         </ItemDef>
         <ItemDef OID="IT.ADAE.AESEQ" Name="AESEQ" DataType="integer" Length="8"
                  SASFieldName="AESEQ">
            <Description>
               <TranslatedText>Sequence Number</TranslatedText>
            </Description>
            <def:Origin Type="Derived"/>
         </ItemDef>
         <ItemDef OID="IT.ADAE.TRTEMFL" Name="TRTEMFL" DataType="text" Length="1"
                  SASFieldName="TRTEMFL">
            <Description>
               <TranslatedText>Treatment Emergent Analysis Flag</TranslatedText>
            </Description>
            <def:Origin Type="Derived"/>
         </ItemDef>
         <ItemDef OID="IT.ADAE.AOCCFL" Name="AOCCFL" DataType="text" Length="1"
                  SASFieldName="AOCCFL">
            <Description>
               <TranslatedText>1st Occurrence within Subject Flag</TranslatedText>
            </Description>
            <def:Origin Type="Derived"/>
         </ItemDef>
         <ItemDef OID="IT.ADAE.AOCCSFL" Name="AOCCSFL" DataType="text" Length="1"
                  SASFieldName="AOCCSFL">
            <Description>
               <TranslatedText>1st Occurrence of SOC Flag</TranslatedText>
            </Description>
            <def:Origin Type="Derived"/>
         </ItemDef>
         <ItemDef OID="IT.ADAE.AOCCPFL" Name="AOCCPFL" DataType="text" Length="1"
                  SASFieldName="AOCCPFL">
            <Description>
               <TranslatedText>1st Occurrence of Preferred Term Flag</TranslatedText>
            </Description>
            <def:Origin Type="Derived"/>
         </ItemDef>
         <ItemDef OID="IT.ADAE.AOCC02FL" Name="AOCC02FL" DataType="text" Length="1"
                  SASFieldName="AOCC02FL">
            <Description>
               <TranslatedText>1st Occurrence 02 Flag for Serious</TranslatedText>
            </Description>
            <def:Origin Type="Derived"/>
         </ItemDef>
         <ItemDef OID="IT.ADAE.AOCC03FL" Name="AOCC03FL" DataType="text" Length="1"
                  SASFieldName="AOCC03FL">
            <Description>
               <TranslatedText>1st Occurrence 03 Flag for Serious SOC</TranslatedText>
            </Description>
            <def:Origin Type="Derived"/>
         </ItemDef>
         <ItemDef OID="IT.ADAE.AOCC04FL" Name="AOCC04FL" DataType="text" Length="1"
                  SASFieldName="AOCC04FL">
            <Description>
               <TranslatedText>1st Occurrence 04 Flag for Serious PT</TranslatedText>
            </Description>
            <def:Origin Type="Derived"/>
         </ItemDef>
         <ItemDef OID="IT.ADAE.CQ01NAM" Name="CQ01NAM" DataType="text" Length="19"
                  SASFieldName="CQ01NAM">
            <Description>
               <TranslatedText>Customized Query 01 Name</TranslatedText>
            </Description>
            <def:Origin Type="Derived"/>
         </ItemDef>
         <ItemDef OID="IT.ADAE.AOCC01FL" Name="AOCC01FL" DataType="text" Length="1"
                  SASFieldName="AOCC01FL">
            <Description>
               <TranslatedText>1st Occurrence 01 Flag for CQ01</TranslatedText>
            </Description>
            <def:Origin Type="Derived"/>
         </ItemDef>
         <ItemDef OID="IT.ADLBC.STUDYID" Name="STUDYID" DataType="text" Length="12"
                  SASFieldName="STUDYID">
            <Description>
               <TranslatedText>Study Identifier</TranslatedText>
            </Description>
            <def:Origin Type="Predecessor">
               <Description>
                  <TranslatedText>ADSL.STUDYID</TranslatedText>
               </Description>
            </def:Origin>
         </ItemDef>
         <ItemDef OID="IT.ADLBC.SUBJID" Name="SUBJID" DataType="text" Length="4"
                  SASFieldName="SUBJID">
            <Description>
               <TranslatedText>Subject Identifier for the Study</TranslatedText>
            </Description>
            <def:Origin Type="Predecessor">
               <Description>
                  <TranslatedText>ADSL.SUBJID</TranslatedText>
               </Description>
            </def:Origin>
         </ItemDef>
         <ItemDef OID="IT.ADLBC.USUBJID" Name="USUBJID" DataType="text" Length="11"
                  SASFieldName="USUBJID">
            <Description>
               <TranslatedText>Unique Subject Identifier</TranslatedText>
            </Description>
            <def:Origin Type="Predecessor">
               <Description>
                  <TranslatedText>ADSL.USUBJID</TranslatedText>
               </Description>
            </def:Origin>
         </ItemDef>
         <ItemDef OID="IT.ADLBC.TRT01P" Name="TRT01P" DataType="text" Length="20"
                  SASFieldName="TRT01P">
            <Description>
               <TranslatedText>Planned Treatment for Period 01</TranslatedText>
            </Description>
            <CodeListRef CodeListOID="CL.ARM"/>
            <def:Origin Type="Predecessor">
               <Description>
                  <TranslatedText>ADSL.TRT01P</TranslatedText>
               </Description>
            </def:Origin>
         </ItemDef>
         <ItemDef OID="IT.ADLBC.TRT01PN" Name="TRT01PN" DataType="integer" Length="8"
                  SASFieldName="TRT01PN">
            <Description>
               <TranslatedText>Planned Treatment for Period 01 (N)</TranslatedText>
            </Description>
            <CodeListRef CodeListOID="CL.ARMN"/>
            <def:Origin Type="Predecessor">
               <Description>
                  <TranslatedText>ADSL.TRT01PN</TranslatedText>
               </Description>
            </def:Origin>
         </ItemDef>
         <ItemDef OID="IT.ADLBC.TRT01A" Name="TRT01A" DataType="text" Length="20"
                  SASFieldName="TRT01A">
            <Description>
               <TranslatedText>Actual Treatment for Period 01</TranslatedText>
            </Description>
            <CodeListRef CodeListOID="CL.ARM"/>
            <def:Origin Type="Predecessor">
               <Description>
                  <TranslatedText>ADSL.TRT01A</TranslatedText>
               </Description>
            </def:Origin>
         </ItemDef>
         <ItemDef OID="IT.ADLBC.TRT01AN" Name="TRT01AN" DataType="integer" Length="8"
                  SASFieldName="TRT01AN">
            <Description>
               <TranslatedText>Actual Treatment for Period 01 (N)</TranslatedText>
            </Description>
            <CodeListRef CodeListOID="CL.ARMN"/>
            <def:Origin Type="Predecessor">
               <Description>
                  <TranslatedText>ADSL.TRT01AN</TranslatedText>
               </Description>
            </def:Origin>
         </ItemDef>
         <ItemDef OID="IT.ADLBC.TRTP" Name="TRTP" DataType="text" Length="20" SASFieldName="TRTP">
            <Description>
               <TranslatedText>Planned Treatment</TranslatedText>
            </Description>
            <CodeListRef CodeListOID="CL.ARM"/>
            <def:Origin Type="Derived"/>
         </ItemDef>
         <ItemDef OID="IT.ADLBC.TRTPN" Name="TRTPN" DataType="integer" Length="8"
                  SASFieldName="TRTPN">
            <Description>
               <TranslatedText>Planned Treatment (N)</TranslatedText>
            </Description>
            <CodeListRef CodeListOID="CL.ARMN"/>
            <def:Origin Type="Derived"/>
         </ItemDef>
         <ItemDef OID="IT.ADLBC.TRTA" Name="TRTA" DataType="text" Length="20" SASFieldName="TRTA">
            <Description>
               <TranslatedText>Actual Treatment</TranslatedText>
            </Description>
            <CodeListRef CodeListOID="CL.ARM"/>
            <def:Origin Type="Derived"/>
         </ItemDef>
         <ItemDef OID="IT.ADLBC.TRTAN" Name="TRTAN" DataType="integer" Length="8"
                  SASFieldName="TRTAN">
            <Description>
               <TranslatedText>Actual Treatment (N)</TranslatedText>
            </Description>
            <CodeListRef CodeListOID="CL.ARMN"/>
            <def:Origin Type="Derived"/>
         </ItemDef>
         <ItemDef OID="IT.ADLBC.TRTSDT" Name="TRTSDT" DataType="integer" Length="8"
                  SASFieldName="TRTSDT"
                  def:DisplayFormat="DATE9.">
            <Description>
               <TranslatedText>Date of First Exposure to Treatment</TranslatedText>
            </Description>
            <def:Origin Type="Predecessor">
               <Description>
                  <TranslatedText>ADSL.TRTSDT</TranslatedText>
               </Description>
            </def:Origin>
         </ItemDef>
         <ItemDef OID="IT.ADLBC.TRTEDT" Name="TRTEDT" DataType="integer" Length="8"
                  SASFieldName="TRTEDT"
                  def:DisplayFormat="DATE9.">
            <Description>
               <TranslatedText>Date of Last Exposure to Treatment</TranslatedText>
            </Description>
            <def:Origin Type="Predecessor">
               <Description>
                  <TranslatedText>ADSL.TRTEDT</TranslatedText>
               </Description>
            </def:Origin>
         </ItemDef>
         <ItemDef OID="IT.ADLBC.AGE" Name="AGE" DataType="integer" Length="8" SASFieldName="AGE">
            <Description>
               <TranslatedText>Age</TranslatedText>
            </Description>
            <def:Origin Type="Predecessor">
               <Description>
                  <TranslatedText>ADSL.AGE</TranslatedText>
               </Description>
            </def:Origin>
         </ItemDef>
         <ItemDef OID="IT.ADLBC.AGEGR1" Name="AGEGR1" DataType="text" Length="5"
                  SASFieldName="AGEGR1">
            <Description>
               <TranslatedText>Pooled Age Group 1</TranslatedText>
            </Description>
            <CodeListRef CodeListOID="CL.AGEGR1"/>
            <def:Origin Type="Predecessor">
               <Description>
                  <TranslatedText>ADSL.AGEGR1</TranslatedText>
               </Description>
            </def:Origin>
         </ItemDef>
         <ItemDef OID="IT.ADLBC.AGEGR1N" Name="AGEGR1N" DataType="integer" Length="8"
                  SASFieldName="AGEGR1N">
            <Description>
               <TranslatedText>Pooled Age Group 1 (N)</TranslatedText>
            </Description>
            <CodeListRef CodeListOID="CL.AGEGR1N"/>
            <def:Origin Type="Predecessor">
               <Description>
                  <TranslatedText>ADSL.AGEGR1N</TranslatedText>
               </Description>
            </def:Origin>
         </ItemDef>
         <ItemDef OID="IT.ADLBC.RACE" Name="RACE" DataType="text" Length="32" SASFieldName="RACE">
            <Description>
               <TranslatedText>Race</TranslatedText>
            </Description>
            <CodeListRef CodeListOID="CL.RACE"/>
            <def:Origin Type="Predecessor">
               <Description>
                  <TranslatedText>ADSL.RACE</TranslatedText>
               </Description>
            </def:Origin>
         </ItemDef>
         <ItemDef OID="IT.ADLBC.RACEN" Name="RACEN" DataType="integer" Length="8"
                  SASFieldName="RACEN">
            <Description>
               <TranslatedText>Race (N)</TranslatedText>
            </Description>
            <CodeListRef CodeListOID="CL.RACEN"/>
            <def:Origin Type="Predecessor">
               <Description>
                  <TranslatedText>ADSL.RACEN</TranslatedText>
               </Description>
            </def:Origin>
         </ItemDef>
         <ItemDef OID="IT.ADLBC.SEX" Name="SEX" DataType="text" Length="1" SASFieldName="SEX">
            <Description>
               <TranslatedText>Sex</TranslatedText>
            </Description>
            <CodeListRef CodeListOID="CL.SEX"/>
            <def:Origin Type="Predecessor">
               <Description>
                  <TranslatedText>ADSL.SEX</TranslatedText>
               </Description>
            </def:Origin>
         </ItemDef>
         <ItemDef OID="IT.ADLBC.COMP24FL" Name="COMP24FL" DataType="text" Length="1"
                  SASFieldName="COMP24FL">
            <Description>
               <TranslatedText>Completers of Week 24 Population Flag</TranslatedText>
            </Description>
            <CodeListRef CodeListOID="CL.YN"/>
            <def:Origin Type="Predecessor">
               <Description>
                  <TranslatedText>ADSL.COM01P24FL</TranslatedText>
               </Description>
            </def:Origin>
         </ItemDef>
         <ItemDef OID="IT.ADLBC.DSRAEFL" Name="DSRAEFL" DataType="text" Length="1"
                  SASFieldName="DSRAEFL">
            <Description>
               <TranslatedText>Discontinued due to AE?</TranslatedText>
            </Description>
            <CodeListRef CodeListOID="CL.YN"/>
            <def:Origin Type="Predecessor">
               <Description>
                  <TranslatedText>ADSL.DSR01AEFL</TranslatedText>
               </Description>
            </def:Origin>
         </ItemDef>
         <ItemDef OID="IT.ADLBC.SAFFL" Name="SAFFL" DataType="text" Length="1"
                  SASFieldName="SAFFL">
            <Description>
               <TranslatedText>Safety Population Flag</TranslatedText>
            </Description>
            <CodeListRef CodeListOID="CL.YN"/>
            <def:Origin Type="Predecessor">
               <Description>
                  <TranslatedText>ADSL.SAF01FL</TranslatedText>
               </Description>
            </def:Origin>
         </ItemDef>
         <ItemDef OID="IT.ADLBC.AVISIT" Name="AVISIT" DataType="text" Length="16"
                  SASFieldName="AVISIT">
            <Description>
               <TranslatedText>Analysis Visit</TranslatedText>
            </Description>
            <CodeListRef CodeListOID="CL.AVISIT"/>
            <def:Origin Type="Derived"/>
         </ItemDef>
         <ItemDef OID="IT.ADLBC.AVISITN" Name="AVISITN" DataType="integer" Length="8"
                  SASFieldName="AVISITN">
            <Description>
               <TranslatedText>Analysis Visit (N)</TranslatedText>
            </Description>
            <CodeListRef CodeListOID="CL.AVISITN"/>
            <def:Origin Type="Assigned"/>
         </ItemDef>
         <ItemDef OID="IT.ADLBC.ADY" Name="ADY" DataType="integer" Length="8" SASFieldName="ADY">
            <Description>
               <TranslatedText>Analysis Relative Day</TranslatedText>
            </Description>
            <def:Origin Type="Derived"/>
         </ItemDef>
         <ItemDef OID="IT.ADLBC.ADT" Name="ADT" DataType="integer" Length="8" SASFieldName="ADT"
                  def:DisplayFormat="DATE9.">
            <Description>
               <TranslatedText>Analysis Date</TranslatedText>
            </Description>
            <def:Origin Type="Derived"/>
         </ItemDef>
         <ItemDef OID="IT.ADLBC.VISIT" Name="VISIT" DataType="text" Length="19"
                  SASFieldName="VISIT">
            <Description>
               <TranslatedText>Visit Name</TranslatedText>
            </Description>
            <CodeListRef CodeListOID="CL.VISIT"/>
            <def:Origin Type="Predecessor">
               <Description>
                  <TranslatedText>LB.VISIT</TranslatedText>
               </Description>
            </def:Origin>
         </ItemDef>
         <ItemDef OID="IT.ADLBC.VISITNUM" Name="VISITNUM" DataType="float" Length="8"
                  SignificantDigits="1"
                  SASFieldName="VISITNUM">
            <Description>
               <TranslatedText>Visit Number</TranslatedText>
            </Description>
            <CodeListRef CodeListOID="CL.VISITNUM"/>
            <def:Origin Type="Predecessor">
               <Description>
                  <TranslatedText>LB.VISITNUM</TranslatedText>
               </Description>
            </def:Origin>
         </ItemDef>
         <ItemDef OID="IT.ADLBC.PARAM" Name="PARAM" DataType="text" Length="100"
                  SASFieldName="PARAM">
            <Description>
               <TranslatedText>Parameter</TranslatedText>
            </Description>
            <CodeListRef CodeListOID="CL.PARAM_ADLBC"/>
            <def:Origin Type="Derived"/>
         </ItemDef>
         <ItemDef OID="IT.ADLBC.PARAMCD" Name="PARAMCD" DataType="text" Length="8"
                  SASFieldName="PARAMCD">
            <Description>
               <TranslatedText>Parameter Code</TranslatedText>
            </Description>
            <CodeListRef CodeListOID="CL.PARAMCD_ADLBC"/>
            <def:Origin Type="Predecessor">
               <Description>
                  <TranslatedText>LB.TESTCD</TranslatedText>
               </Description>
            </def:Origin>
         </ItemDef>
         <ItemDef OID="IT.ADLBC.PARAMN" Name="PARAMN" DataType="integer" Length="8"
                  SASFieldName="PARAMN">
            <Description>
               <TranslatedText>Parameter (N)</TranslatedText>
            </Description>
            <CodeListRef CodeListOID="CL.PARAMN_ADLBC"/>
            <def:Origin Type="Derived"/>
         </ItemDef>
         <ItemDef OID="IT.ADLBC.PARCAT1" Name="PARCAT1" DataType="text" Length="5"
                  SASFieldName="PARCAT1">
            <Description>
               <TranslatedText>Parameter Category 1</TranslatedText>
            </Description>
            <CodeListRef CodeListOID="CL.ADLBCAT"/>
            <def:Origin Type="Assigned"/>
         </ItemDef>
         <ItemDef OID="IT.ADLBC.AVAL" Name="AVAL" DataType="float" Length="8"
                  SignificantDigits="5"
                  SASFieldName="AVAL">
            <Description>
               <TranslatedText>Analysis Value</TranslatedText>
            </Description>
            <def:Origin Type="Predecessor">
               <Description>
                  <TranslatedText>LB.LBSTRESN</TranslatedText>
               </Description>
            </def:Origin>
         </ItemDef>
         <ItemDef OID="IT.ADLBC.BASE" Name="BASE" DataType="float" Length="8"
                  SignificantDigits="5"
                  SASFieldName="BASE">
            <Description>
               <TranslatedText>Baseline Value</TranslatedText>
            </Description>
            <def:Origin Type="Derived"/>
         </ItemDef>
         <ItemDef OID="IT.ADLBC.CHG" Name="CHG" DataType="float" Length="8" SignificantDigits="5"
                  SASFieldName="CHG">
            <Description>
               <TranslatedText>Change from Baseline</TranslatedText>
            </Description>
            <def:Origin Type="Derived"/>
         </ItemDef>
         <ItemDef OID="IT.ADLBC.A1LO" Name="A1LO" DataType="float" Length="8"
                  SignificantDigits="5"
                  SASFieldName="A1LO">
            <Description>
               <TranslatedText>Analysis Range 1 Lower Limit</TranslatedText>
            </Description>
            <def:Origin Type="Derived"/>
         </ItemDef>
         <ItemDef OID="IT.ADLBC.A1HI" Name="A1HI" DataType="float" Length="8"
                  SignificantDigits="5"
                  SASFieldName="A1HI">
            <Description>
               <TranslatedText>Analysis Range 1 Upper Limit</TranslatedText>
            </Description>
            <def:Origin Type="Derived"/>
         </ItemDef>
         <ItemDef OID="IT.ADLBC.R2A1LO" Name="R2A1LO" DataType="float" Length="8"
                  SignificantDigits="1"
                  SASFieldName="R2A1LO">
            <Description>
               <TranslatedText>Ratio to Analysis Range 1 Lower Limit</TranslatedText>
            </Description>
            <def:Origin Type="Derived"/>
         </ItemDef>
         <ItemDef OID="IT.ADLBC.R2A1HI" Name="R2A1HI" DataType="float" Length="8"
                  SignificantDigits="1"
                  SASFieldName="R2A1HI">
            <Description>
               <TranslatedText>Ratio to Analysis Range 1 Upper Limit</TranslatedText>
            </Description>
            <def:Origin Type="Derived"/>
         </ItemDef>
         <ItemDef OID="IT.ADLBC.BR2A1LO" Name="BR2A1LO" DataType="float" Length="8"
                  SignificantDigits="1"
                  SASFieldName="BR2A1LO">
            <Description>
               <TranslatedText>Base Ratio to Analysis Range 1 Lower Lim</TranslatedText>
            </Description>
            <def:Origin Type="Derived"/>
         </ItemDef>
         <ItemDef OID="IT.ADLBC.BR2A1HI" Name="BR2A1HI" DataType="float" Length="8"
                  SignificantDigits="1"
                  SASFieldName="BR2A1HI">
            <Description>
               <TranslatedText>Base Ratio to Analysis Range 1 Upper Lim</TranslatedText>
            </Description>
            <def:Origin Type="Derived"/>
         </ItemDef>
         <ItemDef OID="IT.ADLBC.ANL01FL" Name="ANL01FL" DataType="text" Length="1"
                  SASFieldName="ANL01FL">
            <Description>
               <TranslatedText>Analysis Flag 01</TranslatedText>
            </Description>
            <def:Origin Type="Assigned"/>
         </ItemDef>
         <ItemDef OID="IT.ADLBC.ALBTRVAL" Name="ALBTRVAL" DataType="float" Length="8"
                  SignificantDigits="3"
                  SASFieldName="ALBTRVAL">
            <Description>
               <TranslatedText>Amount Threshold Range</TranslatedText>
            </Description>
            <def:Origin Type="Derived"/>
         </ItemDef>
         <ItemDef OID="IT.ADLBC.ANRIND" Name="ANRIND" DataType="text" Length="1"
                  SASFieldName="ANRIND">
            <Description>
               <TranslatedText>Analysis Reference Range Indicator</TranslatedText>
            </Description>
            <CodeListRef CodeListOID="CL.LNH"/>
            <def:Origin Type="Derived"/>
         </ItemDef>
         <ItemDef OID="IT.ADLBC.BNRIND" Name="BNRIND" DataType="text" Length="1"
                  SASFieldName="BNRIND">
            <Description>
               <TranslatedText>Baseline Reference Range Indicator</TranslatedText>
            </Description>
            <CodeListRef CodeListOID="CL.LNH"/>
            <def:Origin Type="Derived"/>
         </ItemDef>
         <ItemDef OID="IT.ADLBC.ABLFL" Name="ABLFL" DataType="text" Length="1"
                  SASFieldName="ABLFL">
            <Description>
               <TranslatedText>Baseline Record Flag</TranslatedText>
            </Description>
            <def:Origin Type="Predecessor">
               <Description>
                  <TranslatedText>LB.LBBLFL</TranslatedText>
               </Description>
            </def:Origin>
         </ItemDef>
         <ItemDef OID="IT.ADLBC.AENTMTFL" Name="AENTMTFL" DataType="text" Length="1"
                  SASFieldName="AENTMTFL">
            <Description>
               <TranslatedText>Last value in treatment visit</TranslatedText>
            </Description>
            <def:Origin Type="Derived"/>
         </ItemDef>
         <ItemDef OID="IT.ADLBC.LBSEQ" Name="LBSEQ" DataType="integer" Length="8"
                  SASFieldName="LBSEQ">
            <Description>
               <TranslatedText>Sequence Number</TranslatedText>
            </Description>
            <def:Origin Type="Predecessor">
               <Description>
                  <TranslatedText>LB.LBSEQ</TranslatedText>
               </Description>
            </def:Origin>
         </ItemDef>
         <ItemDef OID="IT.ADLBC.LBNRIND" Name="LBNRIND" DataType="text" Length="8"
                  SASFieldName="LBNRIND">
            <Description>
               <TranslatedText>Reference Range Indicator</TranslatedText>
            </Description>
            <CodeListRef CodeListOID="CL.LBNRIND"/>
            <def:Origin Type="Predecessor">
               <Description>
                  <TranslatedText>LB.LBNRIND</TranslatedText>
               </Description>
            </def:Origin>
         </ItemDef>
         <ItemDef OID="IT.ADLBC.LBSTRESN" Name="LBSTRESN" DataType="float" Length="8"
                  SignificantDigits="5"
                  SASFieldName="LBSTRESN">
            <Description>
               <TranslatedText>Numeric Result/Finding in Standard Units</TranslatedText>
            </Description>
            <def:Origin Type="Predecessor">
               <Description>
                  <TranslatedText>LB.LBSTRESN</TranslatedText>
               </Description>
            </def:Origin>
         </ItemDef>
         <ItemDef OID="IT.ADSL.STUDYID" Name="STUDYID" DataType="text" Length="12"
                  SASFieldName="STUDYID">
            <Description>
               <TranslatedText>Study Identifier</TranslatedText>
            </Description>
            <def:Origin Type="Predecessor">
               <Description>
                  <TranslatedText>DM.STUDYID</TranslatedText>
               </Description>
            </def:Origin>
         </ItemDef>
         <ItemDef OID="IT.ADSL.USUBJID" Name="USUBJID" DataType="text" Length="11"
                  SASFieldName="USUBJID">
            <Description>
               <TranslatedText>Unique Subject Identifier</TranslatedText>
            </Description>
            <def:Origin Type="Predecessor">
               <Description>
                  <TranslatedText>DM.USUBJID</TranslatedText>
               </Description>
            </def:Origin>
         </ItemDef>
         <ItemDef OID="IT.ADSL.SUBJID" Name="SUBJID" DataType="text" Length="4"
                  SASFieldName="SUBJID">
            <Description>
               <TranslatedText>Subject Identifier for the Study</TranslatedText>
            </Description>
            <def:Origin Type="Derived"/>
         </ItemDef>
         <ItemDef OID="IT.ADSL.SITEID" Name="SITEID" DataType="text" Length="3"
                  SASFieldName="SITEID">
            <Description>
               <TranslatedText>Study Site Identifier</TranslatedText>
            </Description>
            <def:Origin Type="Derived"/>
         </ItemDef>
         <ItemDef OID="IT.ADSL.SITEGR1" Name="SITEGR1" DataType="text" Length="3"
                  SASFieldName="SITEGR1">
            <Description>
               <TranslatedText>Pooled Site Group 1</TranslatedText>
            </Description>
            <def:Origin Type="Derived"/>
         </ItemDef>
         <ItemDef OID="IT.ADSL.ARM" Name="ARM" DataType="text" Length="20" SASFieldName="ARM">
            <Description>
               <TranslatedText>Description of Planned Arm</TranslatedText>
            </Description>
            <CodeListRef CodeListOID="CL.ARM"/>
            <def:Origin Type="Derived"/>
         </ItemDef>
         <ItemDef OID="IT.ADSL.ACTARM" Name="ACTARM" DataType="text" Length="20"
                  SASFieldName="ACTARM">
            <Description>
               <TranslatedText>Description of Actual Arm</TranslatedText>
            </Description>
            <CodeListRef CodeListOID="CL.ARM"/>
            <def:Origin Type="Derived"/>
         </ItemDef>
         <ItemDef OID="IT.ADSL.TRT01P" Name="TRT01P" DataType="text" Length="20"
                  SASFieldName="TRT01P">
            <Description>
               <TranslatedText>Planned Treatment for Period 01</TranslatedText>
            </Description>
            <CodeListRef CodeListOID="CL.ARM"/>
            <def:Origin Type="Derived"/>
         </ItemDef>
         <ItemDef OID="IT.ADSL.TRT01PN" Name="TRT01PN" DataType="integer" Length="8"
                  SASFieldName="TRT01PN">
            <Description>
               <TranslatedText>Planned Treatment for Period 01 (N)</TranslatedText>
            </Description>
            <CodeListRef CodeListOID="CL.ARMN"/>
            <def:Origin Type="Derived"/>
         </ItemDef>
         <ItemDef OID="IT.ADSL.TRT01A" Name="TRT01A" DataType="text" Length="20"
                  SASFieldName="TRT01A">
            <Description>
               <TranslatedText>Actual Treatment for Period 01</TranslatedText>
            </Description>
            <CodeListRef CodeListOID="CL.ARM"/>
            <def:Origin Type="Derived"/>
         </ItemDef>
         <ItemDef OID="IT.ADSL.TRT01AN" Name="TRT01AN" DataType="integer" Length="8"
                  SASFieldName="TRT01AN">
            <Description>
               <TranslatedText>Actual Treatment for Period 01 (N)</TranslatedText>
            </Description>
            <CodeListRef CodeListOID="CL.ARMN"/>
            <def:Origin Type="Derived"/>
         </ItemDef>
         <ItemDef OID="IT.ADSL.TRTSDT" Name="TRTSDT" DataType="integer" Length="8"
                  SASFieldName="TRTSDT"
                  def:DisplayFormat="DATE9.">
            <Description>
               <TranslatedText>Date of First Exposure to Treatment</TranslatedText>
            </Description>
            <def:Origin Type="Derived"/>
         </ItemDef>
         <ItemDef OID="IT.ADSL.TRTEDT" Name="TRTEDT" DataType="integer" Length="8"
                  SASFieldName="TRTEDT"
                  def:DisplayFormat="DATE9.">
            <Description>
               <TranslatedText>Date of Last Exposure to Treatment</TranslatedText>
            </Description>
            <def:Origin Type="Derived"/>
         </ItemDef>
         <ItemDef OID="IT.ADSL.TRTDURD" Name="TRTDURD" DataType="integer" Length="8"
                  SASFieldName="TRTDURD">
            <Description>
               <TranslatedText>Total Treatment Duration (Days)</TranslatedText>
            </Description>
            <def:Origin Type="Derived"/>
         </ItemDef>
         <ItemDef OID="IT.ADSL.AVGDD" Name="AVGDD" DataType="float" Length="8"
                  SignificantDigits="1"
                  SASFieldName="AVGDD">
            <Description>
               <TranslatedText>Avg Daily Dose (as planned)</TranslatedText>
            </Description>
            <def:Origin Type="Derived"/>
         </ItemDef>
         <ItemDef OID="IT.ADSL.CUMDOSE" Name="CUMDOSE" DataType="float" Length="8"
                  SignificantDigits="1"
                  SASFieldName="CUMDOSE">
            <Description>
               <TranslatedText>Cumulative Dose (as planned)</TranslatedText>
            </Description>
            <def:Origin Type="Derived"/>
         </ItemDef>
         <ItemDef OID="IT.ADSL.AGE" Name="AGE" DataType="integer" Length="8" SASFieldName="AGE">
            <Description>
               <TranslatedText>Age</TranslatedText>
            </Description>
            <def:Origin Type="Derived"/>
         </ItemDef>
         <ItemDef OID="IT.ADSL.AGEGR1" Name="AGEGR1" DataType="text" Length="5"
                  SASFieldName="AGEGR1">
            <Description>
               <TranslatedText>Pooled Age Group 1</TranslatedText>
            </Description>
            <CodeListRef CodeListOID="CL.AGEGR1"/>
            <def:Origin Type="Derived"/>
         </ItemDef>
         <ItemDef OID="IT.ADSL.AGEGR1N" Name="AGEGR1N" DataType="integer" Length="8"
                  SASFieldName="AGEGR1N">
            <Description>
               <TranslatedText>Pooled Age Group 1 (N)</TranslatedText>
            </Description>
            <CodeListRef CodeListOID="CL.AGEGR1N"/>
            <def:Origin Type="Derived"/>
         </ItemDef>
         <ItemDef OID="IT.ADSL.AGEU" Name="AGEU" DataType="text" Length="5" SASFieldName="AGEU">
            <Description>
               <TranslatedText>Age Units</TranslatedText>
            </Description>
            <CodeListRef CodeListOID="CL.AGEU"/>
            <def:Origin Type="Derived"/>
         </ItemDef>
         <ItemDef OID="IT.ADSL.RACE" Name="RACE" DataType="text" Length="32" SASFieldName="RACE">
            <Description>
               <TranslatedText>Race</TranslatedText>
            </Description>
            <CodeListRef CodeListOID="CL.RACE"/>
            <def:Origin Type="Derived"/>
         </ItemDef>
         <ItemDef OID="IT.ADSL.RACEN" Name="RACEN" DataType="integer" Length="8"
                  SASFieldName="RACEN">
            <Description>
               <TranslatedText>Race (N)</TranslatedText>
            </Description>
            <CodeListRef CodeListOID="CL.RACEN"/>
            <def:Origin Type="Derived"/>
         </ItemDef>
         <ItemDef OID="IT.ADSL.SEX" Name="SEX" DataType="text" Length="1" SASFieldName="SEX">
            <Description>
               <TranslatedText>Sex</TranslatedText>
            </Description>
            <CodeListRef CodeListOID="CL.SEX"/>
            <def:Origin Type="Derived"/>
         </ItemDef>
         <ItemDef OID="IT.ADSL.ETHNIC" Name="ETHNIC" DataType="text" Length="22"
                  SASFieldName="ETHNIC">
            <Description>
               <TranslatedText>Ethnicity</TranslatedText>
            </Description>
            <CodeListRef CodeListOID="CL.ETHNIC"/>
            <def:Origin Type="Derived"/>
         </ItemDef>
         <ItemDef OID="IT.ADSL.SAFFL" Name="SAFFL" DataType="text" Length="1"
                  SASFieldName="SAFFL">
            <Description>
               <TranslatedText>Safety Population Flag</TranslatedText>
            </Description>
            <CodeListRef CodeListOID="CL.YN"/>
            <def:Origin Type="Derived"/>
         </ItemDef>
         <ItemDef OID="IT.ADSL.ITTFL" Name="ITTFL" DataType="text" Length="1"
                  SASFieldName="ITTFL">
            <Description>
               <TranslatedText>Intent-To-Treat Population Flag</TranslatedText>
            </Description>
            <CodeListRef CodeListOID="CL.YN"/>
            <def:Origin Type="Derived"/>
         </ItemDef>
         <ItemDef OID="IT.ADSL.EFFFL" Name="EFFFL" DataType="text" Length="1"
                  SASFieldName="EFFFL">
            <Description>
               <TranslatedText>Efficacy Population Flag</TranslatedText>
            </Description>
            <CodeListRef CodeListOID="CL.YN"/>
            <def:Origin Type="Derived"/>
         </ItemDef>
         <ItemDef OID="IT.ADSL.COMP8FL" Name="COMP8FL" DataType="text" Length="1"
                  SASFieldName="COMP8FL">
            <Description>
               <TranslatedText>Completers of Week 8 Population Flag</TranslatedText>
            </Description>
            <CodeListRef CodeListOID="CL.YN"/>
            <def:Origin Type="Derived"/>
         </ItemDef>
         <ItemDef OID="IT.ADSL.COMP16FL" Name="COMP16FL" DataType="text" Length="1"
                  SASFieldName="COMP16FL">
            <Description>
               <TranslatedText>Completers of Week 16 Population Flag</TranslatedText>
            </Description>
            <CodeListRef CodeListOID="CL.YN"/>
            <def:Origin Type="Derived"/>
         </ItemDef>
         <ItemDef OID="IT.ADSL.COMP24FL" Name="COMP24FL" DataType="text" Length="1"
                  SASFieldName="COMP24FL">
            <Description>
               <TranslatedText>Completers of Week 24 Population Flag</TranslatedText>
            </Description>
            <CodeListRef CodeListOID="CL.YN"/>
            <def:Origin Type="Derived"/>
         </ItemDef>
         <ItemDef OID="IT.ADSL.DISCONFL" Name="DISCONFL" DataType="text" Length="1"
                  SASFieldName="DISCONFL">
            <Description>
               <TranslatedText>Did the Subject Discontinue the Study?</TranslatedText>
            </Description>
            <def:Origin Type="Derived"/>
         </ItemDef>
         <ItemDef OID="IT.ADSL.DSRAEFL" Name="DSRAEFL" DataType="text" Length="1"
                  SASFieldName="DSRAEFL">
            <Description>
               <TranslatedText>Discontinued due to AE?</TranslatedText>
            </Description>
            <def:Origin Type="Derived"/>
         </ItemDef>
         <ItemDef OID="IT.ADSL.DTHFL" Name="DTHFL" DataType="text" Length="1"
                  SASFieldName="DTHFL">
            <Description>
               <TranslatedText>Subject Died?</TranslatedText>
            </Description>
            <def:Origin Type="Derived"/>
         </ItemDef>
         <ItemDef OID="IT.ADSL.BMIBL" Name="BMIBL" DataType="float" Length="8"
                  SignificantDigits="1"
                  SASFieldName="BMIBL">
            <Description>
               <TranslatedText>Baseline BMI (kg/m^2)</TranslatedText>
            </Description>
            <def:Origin Type="Derived"/>
         </ItemDef>
         <ItemDef OID="IT.ADSL.BMIBLGR1" Name="BMIBLGR1" DataType="text" Length="6"
                  SASFieldName="BMIBLGR1">
            <Description>
               <TranslatedText>Pooled Baseline BMI Group 1</TranslatedText>
            </Description>
            <CodeListRef CodeListOID="CL.BMICAT"/>
            <def:Origin Type="Derived"/>
         </ItemDef>
         <ItemDef OID="IT.ADSL.HEIGHTBL" Name="HEIGHTBL" DataType="float" Length="8"
                  SignificantDigits="1"
                  SASFieldName="HEIGHTBL">
            <Description>
               <TranslatedText>Baseline Height (cm)</TranslatedText>
            </Description>
            <def:Origin Type="Derived"/>
         </ItemDef>
         <ItemDef OID="IT.ADSL.WEIGHTBL" Name="WEIGHTBL" DataType="float" Length="8"
                  SignificantDigits="1"
                  SASFieldName="WEIGHTBL">
            <Description>
               <TranslatedText>Baseline Weight (kg)</TranslatedText>
            </Description>
            <def:Origin Type="Derived"/>
         </ItemDef>
         <ItemDef OID="IT.ADSL.EDUCLVL" Name="EDUCLVL" DataType="integer" Length="8"
                  SASFieldName="EDUCLVL">
            <Description>
               <TranslatedText>Years of Education</TranslatedText>
            </Description>
            <def:Origin Type="Derived"/>
         </ItemDef>
         <ItemDef OID="IT.ADSL.DISONSDT" Name="DISONSDT" DataType="integer" Length="8"
                  SASFieldName="DISONSDT"
                  def:DisplayFormat="DATE9.">
            <Description>
               <TranslatedText>Date of Onset of Disease</TranslatedText>
            </Description>
            <def:Origin Type="Derived"/>
         </ItemDef>
         <ItemDef OID="IT.ADSL.DURDIS" Name="DURDIS" DataType="float" Length="8"
                  SignificantDigits="1"
                  SASFieldName="DURDIS">
            <Description>
               <TranslatedText>Duration of Disease (Months)</TranslatedText>
            </Description>
            <def:Origin Type="Derived"/>
         </ItemDef>
         <ItemDef OID="IT.ADSL.DURDSGR1" Name="DURDSGR1" DataType="text" Length="4"
                  SASFieldName="DURDSGR1">
            <Description>
               <TranslatedText>Pooled Disease Duration Group 1</TranslatedText>
            </Description>
            <CodeListRef CodeListOID="CL.DURDISC"/>
            <def:Origin Type="Derived"/>
         </ItemDef>
         <ItemDef OID="IT.ADSL.VISIT1DT" Name="VISIT1DT" DataType="integer" Length="8"
                  SASFieldName="VISIT1DT"
                  def:DisplayFormat="DATE9.">
            <Description>
               <TranslatedText>Date of Visit 1</TranslatedText>
            </Description>
            <def:Origin Type="Derived"/>
         </ItemDef>
         <ItemDef OID="IT.ADSL.RFSTDTC" Name="RFSTDTC" DataType="text" Length="20"
                  SASFieldName="RFSTDTC">
            <Description>
               <TranslatedText>Subject Reference Start Date/Time</TranslatedText>
            </Description>
            <def:Origin Type="Derived"/>
         </ItemDef>
         <ItemDef OID="IT.ADSL.RFENDTC" Name="RFENDTC" DataType="text" Length="20"
                  SASFieldName="RFENDTC">
            <Description>
               <TranslatedText>Subject Reference End Date/Time</TranslatedText>
            </Description>
            <def:Origin Type="Derived"/>
         </ItemDef>
         <ItemDef OID="IT.ADSL.VISNUMEN" Name="VISNUMEN" DataType="integer" Length="8"
                  SASFieldName="VISNUMEN">
            <Description>
               <TranslatedText>End of Trt Visit (Vis 12 or Early Term.)</TranslatedText>
            </Description>
            <def:Origin Type="Derived"/>
         </ItemDef>
         <ItemDef OID="IT.ADSL.RFENDT" Name="RFENDT" DataType="integer" Length="8"
                  SASFieldName="RFENDT"
                  def:DisplayFormat="DATE9.">
            <Description>
               <TranslatedText>Date of Discontinuation/Completion</TranslatedText>
            </Description>
            <def:Origin Type="Derived"/>
         </ItemDef>
         <ItemDef OID="IT.ADSL.DCDECOD" Name="DCDECOD" DataType="text" Length="27"
                  SASFieldName="DCDECOD">
            <Description>
               <TranslatedText>Standardized Disposition Term</TranslatedText>
            </Description>
            <CodeListRef CodeListOID="CL.DISCCD"/>
            <def:Origin Type="Derived"/>
         </ItemDef>
         <ItemDef OID="IT.ADSL.EOSSTT" Name="EOSSTT" DataType="text" Length="12"
                  SASFieldName="EOSSTT">
            <Description>
               <TranslatedText>End of Study Status</TranslatedText>
            </Description>
            <def:Origin Type="Derived"/>
         </ItemDef>
         <ItemDef OID="IT.ADSL.DCSREAS" Name="DCSREAS" DataType="text" Length="18"
                  SASFieldName="DCSREAS">
            <Description>
               <TranslatedText>Reason for Discontinuation from Study</TranslatedText>
            </Description>
            <CodeListRef CodeListOID="CL.DISCREAS"/>
            <def:Origin Type="Derived"/>
         </ItemDef>
         <ItemDef OID="IT.ADSL.MMSETOT" Name="MMSETOT" DataType="integer" Length="8"
                  SASFieldName="MMSETOT">
            <Description>
               <TranslatedText>MMSE Total</TranslatedText>
            </Description>
            <def:Origin Type="Derived"/>
         </ItemDef>
         <CodeList OID="CL.ADLBCAT" Name="ADLBCAT" DataType="text">
            <CodeListItem CodedValue="CHEM" OrderNumber="1">
               <Decode>
                  <TranslatedText>Chemistry</TranslatedText>
               </Decode>
            </CodeListItem>
            <CodeListItem CodedValue="HEM" OrderNumber="2">
               <Decode>
                  <TranslatedText>Hematology</TranslatedText>
               </Decode>
            </CodeListItem>
            <CodeListItem CodedValue="HYLAW" OrderNumber="3">
               <Decode>
                  <TranslatedText>Hy's Law</TranslatedText>
               </Decode>
            </CodeListItem>
         </CodeList>
         <CodeList OID="CL.ADURU" Name="ADURU" DataType="text">
            <CodeListItem CodedValue="DAYS" OrderNumber="4">
               <Decode>
                  <TranslatedText>DAYS</TranslatedText>
               </Decode>
               <Alias Name="C25301" Context="nci:ExtCodeID"/>
            </CodeListItem>
            <Alias Name="C71620" Context="nci:ExtCodeID"/>
         </CodeList>
         <CodeList OID="CL.AECAUS" Name="AECAUS" DataType="text">
            <CodeListItem CodedValue="NONE" OrderNumber="1">
               <Decode>
                  <TranslatedText>NONE</TranslatedText>
               </Decode>
            </CodeListItem>
            <CodeListItem CodedValue="POSSIBLE" OrderNumber="2">
               <Decode>
                  <TranslatedText>POSSIBLE</TranslatedText>
               </Decode>
            </CodeListItem>
            <CodeListItem CodedValue="PROBABLE" OrderNumber="3">
               <Decode>
                  <TranslatedText>PROBABLE</TranslatedText>
               </Decode>
            </CodeListItem>
            <CodeListItem CodedValue="REMOTE" OrderNumber="4">
               <Decode>
                  <TranslatedText>REMOTE</TranslatedText>
               </Decode>
            </CodeListItem>
         </CodeList>
         <CodeList OID="CL.AGEGR1" Name="AGEGR1" DataType="text">
            <CodeListItem CodedValue="&lt;65" OrderNumber="1">
               <Decode>
                  <TranslatedText>&lt;65</TranslatedText>
               </Decode>
            </CodeListItem>
            <CodeListItem CodedValue="65-80" OrderNumber="2">
               <Decode>
                  <TranslatedText>65-80</TranslatedText>
               </Decode>
            </CodeListItem>
            <CodeListItem CodedValue="&gt;80" OrderNumber="3">
               <Decode>
                  <TranslatedText>&gt;80</TranslatedText>
               </Decode>
            </CodeListItem>
         </CodeList>
         <CodeList OID="CL.AGEGR1N" Name="AGEGR1N" DataType="integer">
            <CodeListItem CodedValue="1" OrderNumber="1">
               <Decode>
                  <TranslatedText>&lt;65</TranslatedText>
               </Decode>
            </CodeListItem>
            <CodeListItem CodedValue="2" OrderNumber="2">
               <Decode>
                  <TranslatedText>65-80</TranslatedText>
               </Decode>
            </CodeListItem>
            <CodeListItem CodedValue="3" OrderNumber="3">
               <Decode>
                  <TranslatedText>&gt;80</TranslatedText>
               </Decode>
            </CodeListItem>
         </CodeList>
         <CodeList OID="CL.AGEU" Name="AGEU" DataType="text">
            <EnumeratedItem CodedValue="YEARS" OrderNumber="1">
               <Alias Name="C29848" Context="nci:ExtCodeID"/>
            </EnumeratedItem>
            <Alias Name="C66781" Context="nci:ExtCodeID"/>
         </CodeList>
         <CodeList OID="CL.ARM" Name="ARM" DataType="text">
            <CodeListItem CodedValue="Placebo" OrderNumber="1">
               <Decode>
                  <TranslatedText>Placebo</TranslatedText>
               </Decode>
            </CodeListItem>
            <CodeListItem CodedValue="Xanomeline Low Dose" OrderNumber="2">
               <Decode>
                  <TranslatedText>Xanomeline Low Dose</TranslatedText>
               </Decode>
            </CodeListItem>
            <CodeListItem CodedValue="Xanomeline High Dose" OrderNumber="3">
               <Decode>
                  <TranslatedText>Xanomeline High Dose</TranslatedText>
               </Decode>
            </CodeListItem>
         </CodeList>
         <CodeList OID="CL.ARMN" Name="ARMN" DataType="integer">
            <CodeListItem CodedValue="0" OrderNumber="1">
               <Decode>
                  <TranslatedText>Placebo</TranslatedText>
               </Decode>
            </CodeListItem>
            <CodeListItem CodedValue="54" OrderNumber="2">
               <Decode>
                  <TranslatedText>Xanomeline Low Dose</TranslatedText>
               </Decode>
            </CodeListItem>
            <CodeListItem CodedValue="81" OrderNumber="3">
               <Decode>
                  <TranslatedText>Xanomeline High Dose</TranslatedText>
               </Decode>
            </CodeListItem>
         </CodeList>
         <CodeList OID="CL.AVISIT" Name="AVISIT" DataType="text">
            <CodeListItem CodedValue="Baseline" OrderNumber="1">
               <Decode>
                  <TranslatedText>Baseline</TranslatedText>
               </Decode>
            </CodeListItem>
            <CodeListItem CodedValue="Week 2" OrderNumber="2">
               <Decode>
                  <TranslatedText>Week 2</TranslatedText>
               </Decode>
            </CodeListItem>
            <CodeListItem CodedValue="Week 4" OrderNumber="3">
               <Decode>
                  <TranslatedText>Week 4</TranslatedText>
               </Decode>
            </CodeListItem>
            <CodeListItem CodedValue="Week 6" OrderNumber="4">
               <Decode>
                  <TranslatedText>Week 6</TranslatedText>
               </Decode>
            </CodeListItem>
            <CodeListItem CodedValue="Week 8" OrderNumber="5">
               <Decode>
                  <TranslatedText>Week 8</TranslatedText>
               </Decode>
            </CodeListItem>
            <CodeListItem CodedValue="Week 10" OrderNumber="6">
               <Decode>
                  <TranslatedText>Week 10</TranslatedText>
               </Decode>
            </CodeListItem>
            <CodeListItem CodedValue="Week 12" OrderNumber="7">
               <Decode>
                  <TranslatedText>Week 12</TranslatedText>
               </Decode>
            </CodeListItem>
            <CodeListItem CodedValue="Week 14" OrderNumber="8">
               <Decode>
                  <TranslatedText>Week 14</TranslatedText>
               </Decode>
            </CodeListItem>
            <CodeListItem CodedValue="Week 16" OrderNumber="9">
               <Decode>
                  <TranslatedText>Week 16</TranslatedText>
               </Decode>
            </CodeListItem>
            <CodeListItem CodedValue="Week 18" OrderNumber="10">
               <Decode>
                  <TranslatedText>Week 18</TranslatedText>
               </Decode>
            </CodeListItem>
            <CodeListItem CodedValue="Week 20" OrderNumber="11">
               <Decode>
                  <TranslatedText>Week 20</TranslatedText>
               </Decode>
            </CodeListItem>
            <CodeListItem CodedValue="Week 22" OrderNumber="12">
               <Decode>
                  <TranslatedText>Week 22</TranslatedText>
               </Decode>
            </CodeListItem>
            <CodeListItem CodedValue="Week 24" OrderNumber="13">
               <Decode>
                  <TranslatedText>Week 24</TranslatedText>
               </Decode>
            </CodeListItem>
            <CodeListItem CodedValue="Week 26" OrderNumber="14">
               <Decode>
                  <TranslatedText>Week 26</TranslatedText>
               </Decode>
            </CodeListItem>
            <CodeListItem CodedValue="Weeks 4-24" OrderNumber="15">
               <Decode>
                  <TranslatedText>Weeks 4-24</TranslatedText>
               </Decode>
            </CodeListItem>
            <CodeListItem CodedValue="End of Treatment" OrderNumber="16">
               <Decode>
                  <TranslatedText>End of Treatment</TranslatedText>
               </Decode>
            </CodeListItem>
         </CodeList>
         <CodeList OID="CL.AVISITN" Name="AVISITN" DataType="integer">
            <CodeListItem CodedValue="0" OrderNumber="1">
               <Decode>
                  <TranslatedText>Baseline</TranslatedText>
               </Decode>
            </CodeListItem>
            <CodeListItem CodedValue="2" OrderNumber="2">
               <Decode>
                  <TranslatedText>Week 2</TranslatedText>
               </Decode>
            </CodeListItem>
            <CodeListItem CodedValue="4" OrderNumber="3">
               <Decode>
                  <TranslatedText>Week 4</TranslatedText>
               </Decode>
            </CodeListItem>
            <CodeListItem CodedValue="6" OrderNumber="4">
               <Decode>
                  <TranslatedText>Week 6</TranslatedText>
               </Decode>
            </CodeListItem>
            <CodeListItem CodedValue="8" OrderNumber="5">
               <Decode>
                  <TranslatedText>Week 8</TranslatedText>
               </Decode>
            </CodeListItem>
            <CodeListItem CodedValue="10" OrderNumber="6">
               <Decode>
                  <TranslatedText>Week 10</TranslatedText>
               </Decode>
            </CodeListItem>
            <CodeListItem CodedValue="12" OrderNumber="7">
               <Decode>
                  <TranslatedText>Week 12</TranslatedText>
               </Decode>
            </CodeListItem>
            <CodeListItem CodedValue="14" OrderNumber="8">
               <Decode>
                  <TranslatedText>Week 14</TranslatedText>
               </Decode>
            </CodeListItem>
            <CodeListItem CodedValue="16" OrderNumber="9">
               <Decode>
                  <TranslatedText>Week 16</TranslatedText>
               </Decode>
            </CodeListItem>
            <CodeListItem CodedValue="18" OrderNumber="10">
               <Decode>
                  <TranslatedText>Week 18</TranslatedText>
               </Decode>
            </CodeListItem>
            <CodeListItem CodedValue="20" OrderNumber="11">
               <Decode>
                  <TranslatedText>Week 20</TranslatedText>
               </Decode>
            </CodeListItem>
            <CodeListItem CodedValue="22" OrderNumber="12">
               <Decode>
                  <TranslatedText>Week 22</TranslatedText>
               </Decode>
            </CodeListItem>
            <CodeListItem CodedValue="24" OrderNumber="13">
               <Decode>
                  <TranslatedText>Week 24</TranslatedText>
               </Decode>
            </CodeListItem>
            <CodeListItem CodedValue="26" OrderNumber="14">
               <Decode>
                  <TranslatedText>Week 26</TranslatedText>
               </Decode>
            </CodeListItem>
            <CodeListItem CodedValue="98" OrderNumber="15">
               <Decode>
                  <TranslatedText>Weeks 4-24</TranslatedText>
               </Decode>
            </CodeListItem>
            <CodeListItem CodedValue="99" OrderNumber="16">
               <Decode>
                  <TranslatedText>End of Treatment</TranslatedText>
               </Decode>
            </CodeListItem>
         </CodeList>
         <CodeList OID="CL.BMICAT" Name="BMICAT" DataType="text">
            <CodeListItem CodedValue="&lt;25" OrderNumber="1">
               <Decode>
                  <TranslatedText>Normal</TranslatedText>
               </Decode>
            </CodeListItem>
            <CodeListItem CodedValue="25-&lt;30" OrderNumber="2">
               <Decode>
                  <TranslatedText>Overweight</TranslatedText>
               </Decode>
            </CodeListItem>
            <CodeListItem CodedValue="&gt;=30" OrderNumber="3">
               <Decode>
                  <TranslatedText>Obese</TranslatedText>
               </Decode>
            </CodeListItem>
         </CodeList>
         <CodeList OID="CL.DISCCD" Name="DISCCD" DataType="text">
            <CodeListItem CodedValue="COMPLETED" OrderNumber="1">
               <Decode>
                  <TranslatedText>COMPLETED</TranslatedText>
               </Decode>
            </CodeListItem>
            <CodeListItem CodedValue="ADVERSE EVENT" OrderNumber="2">
               <Decode>
                  <TranslatedText>ADVERSE EVENT</TranslatedText>
               </Decode>
            </CodeListItem>
            <CodeListItem CodedValue="DEATH" OrderNumber="3">
               <Decode>
                  <TranslatedText>DEATH</TranslatedText>
               </Decode>
            </CodeListItem>
            <CodeListItem CodedValue="LACK OF EFFICACY" OrderNumber="4">
               <Decode>
                  <TranslatedText>LACK OF EFFICACY</TranslatedText>
               </Decode>
            </CodeListItem>
            <CodeListItem CodedValue="LOST TO FOLLOW-UP" OrderNumber="5">
               <Decode>
                  <TranslatedText>LOST TO FOLLOW-UP</TranslatedText>
               </Decode>
            </CodeListItem>
            <CodeListItem CodedValue="WITHDRAWAL BY SUBJECT" OrderNumber="6">
               <Decode>
                  <TranslatedText>WITHDRAWAL BY SUBJECT</TranslatedText>
               </Decode>
            </CodeListItem>
            <CodeListItem CodedValue="STUDY TERMINATED BY SPONSOR" OrderNumber="8">
               <Decode>
                  <TranslatedText>STUDY TERMINATED BY SPONSOR</TranslatedText>
               </Decode>
            </CodeListItem>
            <CodeListItem CodedValue="PHYSICIAN DECISION" OrderNumber="9">
               <Decode>
                  <TranslatedText>PHYSICIAN DECISION</TranslatedText>
               </Decode>
            </CodeListItem>
            <CodeListItem CodedValue="PROTOCOL VIOLATION" OrderNumber="10">
               <Decode>
                  <TranslatedText>PROTOCOL VIOLATION</TranslatedText>
               </Decode>
            </CodeListItem>
         </CodeList>
         <CodeList OID="CL.DISCREAS" Name="DISCREAS" DataType="text">
            <CodeListItem CodedValue="Completed" OrderNumber="1">
               <Decode>
                  <TranslatedText>Completed</TranslatedText>
               </Decode>
            </CodeListItem>
            <CodeListItem CodedValue="Adverse Event" OrderNumber="2">
               <Decode>
                  <TranslatedText>Adverse Event</TranslatedText>
               </Decode>
            </CodeListItem>
            <CodeListItem CodedValue="Death" OrderNumber="3">
               <Decode>
                  <TranslatedText>Death</TranslatedText>
               </Decode>
            </CodeListItem>
            <CodeListItem CodedValue="I/E Not Met" OrderNumber="4">
               <Decode>
                  <TranslatedText>I/E Not Met</TranslatedText>
               </Decode>
            </CodeListItem>
            <CodeListItem CodedValue="Lack of Efficacy" OrderNumber="5">
               <Decode>
                  <TranslatedText>Lack of Efficacy</TranslatedText>
               </Decode>
            </CodeListItem>
            <CodeListItem CodedValue="Lost to Follow-up" OrderNumber="6">
               <Decode>
                  <TranslatedText>Lost to Follow-up</TranslatedText>
               </Decode>
            </CodeListItem>
            <CodeListItem CodedValue="Physician Decision" OrderNumber="7">
               <Decode>
                  <TranslatedText>Physician Decision</TranslatedText>
               </Decode>
            </CodeListItem>
            <CodeListItem CodedValue="Protocol Violation" OrderNumber="8">
               <Decode>
                  <TranslatedText>Protocol Violation</TranslatedText>
               </Decode>
            </CodeListItem>
            <CodeListItem CodedValue="Sponsor Decision" OrderNumber="9">
               <Decode>
                  <TranslatedText>Sponsor Decision</TranslatedText>
               </Decode>
            </CodeListItem>
            <CodeListItem CodedValue="Withdrew Consent" OrderNumber="10">
               <Decode>
                  <TranslatedText>Withdrew Consent</TranslatedText>
               </Decode>
            </CodeListItem>
         </CodeList>
         <CodeList OID="CL.DTYPE" Name="DTYPE" DataType="text">
            <CodeListItem CodedValue="LOCF" OrderNumber="1">
               <Decode>
                  <TranslatedText>Last Observation Carried Forward</TranslatedText>
               </Decode>
               <Alias Name="C81198" Context="nci:ExtCodeID"/>
            </CodeListItem>
            <CodeListItem CodedValue="AVERAGE" OrderNumber="2">
               <Decode>
                  <TranslatedText>Average</TranslatedText>
               </Decode>
               <Alias Name="C81209" Context="nci:ExtCodeID"/>
            </CodeListItem>
            <Alias Name="C81224" Context="nci:ExtCodeID"/>
         </CodeList>
         <CodeList OID="CL.DURDISC" Name="DURDISC" DataType="text">
            <CodeListItem CodedValue="&lt;12" OrderNumber="1">
               <Decode>
                  <TranslatedText>&lt;12</TranslatedText>
               </Decode>
            </CodeListItem>
            <CodeListItem CodedValue="&gt;=12" OrderNumber="2">
               <Decode>
                  <TranslatedText>&gt;=12</TranslatedText>
               </Decode>
            </CodeListItem>
         </CodeList>
         <CodeList OID="CL.ETHNIC" Name="ETHNIC" DataType="text">
            <CodeListItem CodedValue="HISPANIC OR LATINO" OrderNumber="1">
               <Decode>
                  <TranslatedText>1</TranslatedText>
               </Decode>
               <Alias Name="C17459" Context="nci:ExtCodeID"/>
            </CodeListItem>
            <CodeListItem CodedValue="NOT HISPANIC OR LATINO" OrderNumber="2">
               <Decode>
                  <TranslatedText>2</TranslatedText>
               </Decode>
               <Alias Name="C41222" Context="nci:ExtCodeID"/>
            </CodeListItem>
            <CodeListItem CodedValue="NOT REPORTED" OrderNumber="3">
               <Decode>
                  <TranslatedText>3</TranslatedText>
               </Decode>
               <Alias Name="C43234" Context="nci:ExtCodeID"/>
            </CodeListItem>
            <CodeListItem CodedValue="UNKNOWN" OrderNumber="4">
               <Decode>
                  <TranslatedText>4</TranslatedText>
               </Decode>
               <Alias Name="C17998" Context="nci:ExtCodeID"/>
            </CodeListItem>
            <Alias Name="C66790" Context="nci:ExtCodeID"/>
         </CodeList>
         <CodeList OID="CL.LBNRIND" Name="LBNRIND" DataType="text">
            <CodeListItem CodedValue="LOW" OrderNumber="1">
               <Decode>
                  <TranslatedText>LOW</TranslatedText>
               </Decode>
            </CodeListItem>
            <CodeListItem CodedValue="NORMAL" OrderNumber="2">
               <Decode>
                  <TranslatedText>NORMAL</TranslatedText>
               </Decode>
            </CodeListItem>
            <CodeListItem CodedValue="HIGH" OrderNumber="3">
               <Decode>
                  <TranslatedText>HIGH</TranslatedText>
               </Decode>
            </CodeListItem>
            <CodeListItem CodedValue="ABNORMAL" OrderNumber="4">
               <Decode>
                  <TranslatedText>HIGH</TranslatedText>
               </Decode>
            </CodeListItem>
         </CodeList>
         <CodeList OID="CL.LNH" Name="LNH" DataType="text">
            <CodeListItem CodedValue="L" OrderNumber="1">
               <Decode>
                  <TranslatedText>Low</TranslatedText>
               </Decode>
            </CodeListItem>
            <CodeListItem CodedValue="N" OrderNumber="2">
               <Decode>
                  <TranslatedText>Normal</TranslatedText>
               </Decode>
            </CodeListItem>
            <CodeListItem CodedValue="H" OrderNumber="3">
               <Decode>
                  <TranslatedText>High</TranslatedText>
               </Decode>
            </CodeListItem>
         </CodeList>
         <CodeList OID="CL.OUT" Name="OUT" DataType="text">
            <CodeListItem CodedValue="RECOVERED/RESOLVED" OrderNumber="1">
               <Decode>
                  <TranslatedText>RECOVERED/RESOLVED</TranslatedText>
               </Decode>
               <Alias Name="C49498" Context="nci:ExtCodeID"/>
            </CodeListItem>
            <CodeListItem CodedValue="NOT RECOVERED/NOT RESOLVED" OrderNumber="2">
               <Decode>
                  <TranslatedText>NOT RECOVERED/NOT RESOLVED</TranslatedText>
               </Decode>
               <Alias Name="C49494" Context="nci:ExtCodeID"/>
            </CodeListItem>
            <CodeListItem CodedValue="FATAL" OrderNumber="3">
               <Decode>
                  <TranslatedText>FATAL</TranslatedText>
               </Decode>
               <Alias Name="C48275" Context="nci:ExtCodeID"/>
            </CodeListItem>
            <Alias Name="C66768" Context="nci:ExtCodeID"/>
         </CodeList>
         <CodeList OID="CL.PARAM_ADLBC" Name="PARAM_ADLBC" DataType="text">
            <CodeListItem CodedValue="Albumin (g/L)" OrderNumber="1">
               <Decode>
                  <TranslatedText>Albumin (g/L)</TranslatedText>
               </Decode>
            </CodeListItem>
            <CodeListItem CodedValue="Alkaline Phosphatase (U/L)" OrderNumber="2">
               <Decode>
                  <TranslatedText>Alkaline Phosphatase (U/L)</TranslatedText>
               </Decode>
            </CodeListItem>
            <CodeListItem CodedValue="Alanine Aminotransferase (U/L)" OrderNumber="3">
               <Decode>
                  <TranslatedText>Alanine Aminotransferase (U/L)</TranslatedText>
               </Decode>
            </CodeListItem>
            <CodeListItem CodedValue="Aspartate Aminotransferase (U/L)" OrderNumber="4">
               <Decode>
                  <TranslatedText>Aspartate Aminotransferase (U/L)</TranslatedText>
               </Decode>
            </CodeListItem>
            <CodeListItem CodedValue="Bilirubin (umol/L)" OrderNumber="5">
               <Decode>
                  <TranslatedText>Bilirubin (umol/L)</TranslatedText>
               </Decode>
            </CodeListItem>
            <CodeListItem CodedValue="Blood Urea Nitrogen (mmol/L)" OrderNumber="6">
               <Decode>
                  <TranslatedText>Blood Urea Nitrogen (mmol/L)</TranslatedText>
               </Decode>
            </CodeListItem>
            <CodeListItem CodedValue="Calcium (mmol/L)" OrderNumber="7">
               <Decode>
                  <TranslatedText>Calcium (mmol/L)</TranslatedText>
               </Decode>
            </CodeListItem>
            <CodeListItem CodedValue="Cholesterol (mmol/L)" OrderNumber="8">
               <Decode>
                  <TranslatedText>Cholesterol (mmol/L)</TranslatedText>
               </Decode>
            </CodeListItem>
            <CodeListItem CodedValue="Creatine Kinase (U/L)" OrderNumber="9">
               <Decode>
                  <TranslatedText>Creatine Kinase (U/L)</TranslatedText>
               </Decode>
            </CodeListItem>
            <CodeListItem CodedValue="Chloride (mmol/L)" OrderNumber="10">
               <Decode>
                  <TranslatedText>Chloride (mmol/L)</TranslatedText>
               </Decode>
            </CodeListItem>
            <CodeListItem CodedValue="Creatinine (umol/L)" OrderNumber="11">
               <Decode>
                  <TranslatedText>Creatinine (umol/L)</TranslatedText>
               </Decode>
            </CodeListItem>
            <CodeListItem CodedValue="Gamma Glutamyl Transferase (U/L)" OrderNumber="12">
               <Decode>
                  <TranslatedText>Gamma Glutamyl Transferase (U/L)</TranslatedText>
               </Decode>
            </CodeListItem>
            <CodeListItem CodedValue="Glucose (mmol/L)" OrderNumber="13">
               <Decode>
                  <TranslatedText>Glucose (mmol/L)</TranslatedText>
               </Decode>
            </CodeListItem>
            <CodeListItem CodedValue="Potassium (mmol/L)" OrderNumber="14">
               <Decode>
                  <TranslatedText>Potassium (mmol/L)</TranslatedText>
               </Decode>
            </CodeListItem>
            <CodeListItem CodedValue="Phosphate (mmol/L)" OrderNumber="15">
               <Decode>
                  <TranslatedText>Phosphate (mmol/L)</TranslatedText>
               </Decode>
            </CodeListItem>
            <CodeListItem CodedValue="Protein (g/L)" OrderNumber="16">
               <Decode>
                  <TranslatedText>Protein (g/L)</TranslatedText>
               </Decode>
            </CodeListItem>
            <CodeListItem CodedValue="Sodium (mmol/L)" OrderNumber="17">
               <Decode>
                  <TranslatedText>Sodium (mmol/L)</TranslatedText>
               </Decode>
            </CodeListItem>
            <CodeListItem CodedValue="Urate (umol/L)" OrderNumber="18">
               <Decode>
                  <TranslatedText>Urate (umol/L)</TranslatedText>
               </Decode>
            </CodeListItem>
            <CodeListItem CodedValue="Albumin (g/L) change from previous visit, relative to normal range"
                          OrderNumber="19">
               <Decode>
                  <TranslatedText>Albumin (g/L) change from previous visit, relative to normal range</TranslatedText>
               </Decode>
            </CodeListItem>
            <CodeListItem CodedValue="Alkaline Phosphatase (U/L) change from previous visit, relative to normal range"
                          OrderNumber="20">
               <Decode>
                  <TranslatedText>Alkaline Phosphatase (U/L) change from previous visit, relative to normal range</TranslatedText>
               </Decode>
            </CodeListItem>
            <CodeListItem CodedValue="Alanine Aminotransferase (U/L) change from previous visit, relative to normal range"
                          OrderNumber="21">
               <Decode>
                  <TranslatedText>Alanine Aminotransferase (U/L) change from previous visit, relative to normal range</TranslatedText>
               </Decode>
            </CodeListItem>
            <CodeListItem CodedValue="Aspartate Aminotransferase (U/L) change from previous visit, relative to normal range"
                          OrderNumber="22">
               <Decode>
                  <TranslatedText>Aspartate Aminotransferase (U/L) change from previous visit, relative to normal range</TranslatedText>
               </Decode>
            </CodeListItem>
            <CodeListItem CodedValue="Bilirubin (umol/L) change from previous visit, relative to normal range"
                          OrderNumber="23">
               <Decode>
                  <TranslatedText>Bilirubin (umol/L) change from previous visit, relative to normal range</TranslatedText>
               </Decode>
            </CodeListItem>
            <CodeListItem CodedValue="Blood Urea Nitrogen (mmol/L) change from previous visit, relative to normal range"
                          OrderNumber="24">
               <Decode>
                  <TranslatedText>Blood Urea Nitrogen (mmol/L) change from previous visit, relative to normal range</TranslatedText>
               </Decode>
            </CodeListItem>
            <CodeListItem CodedValue="Calcium (mmol/L) change from previous visit, relative to normal range"
                          OrderNumber="25">
               <Decode>
                  <TranslatedText>Calcium (mmol/L) change from previous visit, relative to normal range</TranslatedText>
               </Decode>
            </CodeListItem>
            <CodeListItem CodedValue="Cholesterol (mmol/L) change from previous visit, relative to normal range"
                          OrderNumber="26">
               <Decode>
                  <TranslatedText>Cholesterol (mmol/L) change from previous visit, relative to normal range</TranslatedText>
               </Decode>
            </CodeListItem>
            <CodeListItem CodedValue="Creatine Kinase (U/L) change from previous visit, relative to normal range"
                          OrderNumber="27">
               <Decode>
                  <TranslatedText>Creatine Kinase (U/L) change from previous visit, relative to normal range</TranslatedText>
               </Decode>
            </CodeListItem>
            <CodeListItem CodedValue="Chloride (mmol/L) change from previous visit, relative to normal range"
                          OrderNumber="28">
               <Decode>
                  <TranslatedText>Chloride (mmol/L) change from previous visit, relative to normal range</TranslatedText>
               </Decode>
            </CodeListItem>
            <CodeListItem CodedValue="Creatinine (umol/L) change from previous visit, relative to normal range"
                          OrderNumber="29">
               <Decode>
                  <TranslatedText>Creatinine (umol/L) change from previous visit, relative to normal range</TranslatedText>
               </Decode>
            </CodeListItem>
            <CodeListItem CodedValue="Gamma Glutamyl Transferase (U/L) change from previous visit, relative to normal range"
                          OrderNumber="30">
               <Decode>
                  <TranslatedText>Gamma Glutamyl Transferase (U/L) change from previous visit, relative to normal range</TranslatedText>
               </Decode>
            </CodeListItem>
            <CodeListItem CodedValue="Glucose (mmol/L) change from previous visit, relative to normal range"
                          OrderNumber="31">
               <Decode>
                  <TranslatedText>Glucose (mmol/L) change from previous visit, relative to normal range</TranslatedText>
               </Decode>
            </CodeListItem>
            <CodeListItem CodedValue="Potassium (mmol/L) change from previous visit, relative to normal range"
                          OrderNumber="32">
               <Decode>
                  <TranslatedText>Potassium (mmol/L) change from previous visit, relative to normal range</TranslatedText>
               </Decode>
            </CodeListItem>
            <CodeListItem CodedValue="Phosphate (mmol/L) change from previous visit, relative to normal range"
                          OrderNumber="33">
               <Decode>
                  <TranslatedText>Phosphate (mmol/L) change from previous visit, relative to normal range</TranslatedText>
               </Decode>
            </CodeListItem>
            <CodeListItem CodedValue="Protein (g/L) change from previous visit, relative to normal range"
                          OrderNumber="34">
               <Decode>
                  <TranslatedText>Protein (g/L) change from previous visit, relative to normal range</TranslatedText>
               </Decode>
            </CodeListItem>
            <CodeListItem CodedValue="Sodium (mmol/L) change from previous visit, relative to normal range"
                          OrderNumber="35">
               <Decode>
                  <TranslatedText>Sodium (mmol/L) change from previous visit, relative to normal range</TranslatedText>
               </Decode>
            </CodeListItem>
            <CodeListItem CodedValue="Urate (umol/L) change from previous visit, relative to normal range"
                          OrderNumber="36">
               <Decode>
                  <TranslatedText>Urate (umol/L) change from previous visit, relative to normal range</TranslatedText>
               </Decode>
            </CodeListItem>
         </CodeList>
         <CodeList OID="CL.PARAMCD_ADLBC" Name="PARAMCD_ADLBC" DataType="text">
            <CodeListItem CodedValue="ALB" OrderNumber="1">
               <Decode>
                  <TranslatedText>Albumin (g/L)</TranslatedText>
               </Decode>
            </CodeListItem>
            <CodeListItem CodedValue="ALP" OrderNumber="2">
               <Decode>
                  <TranslatedText>Alkaline Phosphatase (U/L)</TranslatedText>
               </Decode>
            </CodeListItem>
            <CodeListItem CodedValue="ALT" OrderNumber="3">
               <Decode>
                  <TranslatedText>Alanine Aminotransferase (U/L)</TranslatedText>
               </Decode>
            </CodeListItem>
            <CodeListItem CodedValue="AST" OrderNumber="4">
               <Decode>
                  <TranslatedText>Aspartate Aminotransferase (U/L)</TranslatedText>
               </Decode>
            </CodeListItem>
            <CodeListItem CodedValue="BILI" OrderNumber="5">
               <Decode>
                  <TranslatedText>Bilirubin (umol/L)</TranslatedText>
               </Decode>
            </CodeListItem>
            <CodeListItem CodedValue="BUN" OrderNumber="6">
               <Decode>
                  <TranslatedText>Blood Urea Nitrogen (mmol/L)</TranslatedText>
               </Decode>
            </CodeListItem>
            <CodeListItem CodedValue="CA" OrderNumber="7">
               <Decode>
                  <TranslatedText>Calcium (mmol/L)</TranslatedText>
               </Decode>
            </CodeListItem>
            <CodeListItem CodedValue="CHOL" OrderNumber="8">
               <Decode>
                  <TranslatedText>Cholesterol (mmol/L)</TranslatedText>
               </Decode>
            </CodeListItem>
            <CodeListItem CodedValue="CK" OrderNumber="9">
               <Decode>
                  <TranslatedText>Creatine Kinase (U/L)</TranslatedText>
               </Decode>
            </CodeListItem>
            <CodeListItem CodedValue="CL" OrderNumber="10">
               <Decode>
                  <TranslatedText>Chloride (mmol/L)</TranslatedText>
               </Decode>
            </CodeListItem>
            <CodeListItem CodedValue="CREAT" OrderNumber="11">
               <Decode>
                  <TranslatedText>Creatinine (umol/L)</TranslatedText>
               </Decode>
            </CodeListItem>
            <CodeListItem CodedValue="GGT" OrderNumber="12">
               <Decode>
                  <TranslatedText>Gamma Glutamyl Transferase (U/L)</TranslatedText>
               </Decode>
            </CodeListItem>
            <CodeListItem CodedValue="GLUC" OrderNumber="13">
               <Decode>
                  <TranslatedText>Glucose (mmol/L)</TranslatedText>
               </Decode>
            </CodeListItem>
            <CodeListItem CodedValue="K" OrderNumber="14">
               <Decode>
                  <TranslatedText>Potassium (mmol/L)</TranslatedText>
               </Decode>
            </CodeListItem>
            <CodeListItem CodedValue="PHOS" OrderNumber="15">
               <Decode>
                  <TranslatedText>Phosphate (mmol/L)</TranslatedText>
               </Decode>
            </CodeListItem>
            <CodeListItem CodedValue="PROT" OrderNumber="16">
               <Decode>
                  <TranslatedText>Protein (g/L)</TranslatedText>
               </Decode>
            </CodeListItem>
            <CodeListItem CodedValue="SODIUM" OrderNumber="17">
               <Decode>
                  <TranslatedText>Sodium (mmol/L)</TranslatedText>
               </Decode>
            </CodeListItem>
            <CodeListItem CodedValue="URATE" OrderNumber="18">
               <Decode>
                  <TranslatedText>Urate (umol/L)</TranslatedText>
               </Decode>
            </CodeListItem>
            <CodeListItem CodedValue="_ALB" OrderNumber="19">
               <Decode>
                  <TranslatedText>Albumin (g/L) change from previous visit, relative to normal range</TranslatedText>
               </Decode>
            </CodeListItem>
            <CodeListItem CodedValue="_ALP" OrderNumber="20">
               <Decode>
                  <TranslatedText>Alkaline Phosphatase (U/L) change from previous visit, relative to normal range</TranslatedText>
               </Decode>
            </CodeListItem>
            <CodeListItem CodedValue="_ALT" OrderNumber="21">
               <Decode>
                  <TranslatedText>Alanine Aminotransferase (U/L) change from previous visit, relative to normal range</TranslatedText>
               </Decode>
            </CodeListItem>
            <CodeListItem CodedValue="_AST" OrderNumber="22">
               <Decode>
                  <TranslatedText>Aspartate Aminotransferase (U/L) change from previous visit, relative to normal range</TranslatedText>
               </Decode>
            </CodeListItem>
            <CodeListItem CodedValue="_BILI" OrderNumber="23">
               <Decode>
                  <TranslatedText>Bilirubin (umol/L) change from previous visit, relative to normal range</TranslatedText>
               </Decode>
            </CodeListItem>
            <CodeListItem CodedValue="_BUN" OrderNumber="24">
               <Decode>
                  <TranslatedText>Blood Urea Nitrogen (mmol/L) change from previous visit, relative to normal range</TranslatedText>
               </Decode>
            </CodeListItem>
            <CodeListItem CodedValue="_CA" OrderNumber="25">
               <Decode>
                  <TranslatedText>Calcium (mmol/L) change from previous visit, relative to normal range</TranslatedText>
               </Decode>
            </CodeListItem>
            <CodeListItem CodedValue="_CHOL" OrderNumber="26">
               <Decode>
                  <TranslatedText>Cholesterol (mmol/L) change from previous visit, relative to normal range</TranslatedText>
               </Decode>
            </CodeListItem>
            <CodeListItem CodedValue="_CK" OrderNumber="27">
               <Decode>
                  <TranslatedText>Creatine Kinase (U/L) change from previous visit, relative to normal range</TranslatedText>
               </Decode>
            </CodeListItem>
            <CodeListItem CodedValue="_CL" OrderNumber="28">
               <Decode>
                  <TranslatedText>Chloride (mmol/L) change from previous visit, relative to normal range</TranslatedText>
               </Decode>
            </CodeListItem>
            <CodeListItem CodedValue="_CREAT" OrderNumber="29">
               <Decode>
                  <TranslatedText>Creatinine (umol/L) change from previous visit, relative to normal range</TranslatedText>
               </Decode>
            </CodeListItem>
            <CodeListItem CodedValue="_GGT" OrderNumber="30">
               <Decode>
                  <TranslatedText>Gamma Glutamyl Transferase (U/L) change from previous visit, relative to normal range</TranslatedText>
               </Decode>
            </CodeListItem>
            <CodeListItem CodedValue="_GLUC" OrderNumber="31">
               <Decode>
                  <TranslatedText>Glucose (mmol/L) change from previous visit, relative to normal range</TranslatedText>
               </Decode>
            </CodeListItem>
            <CodeListItem CodedValue="_K" OrderNumber="32">
               <Decode>
                  <TranslatedText>Potassium (mmol/L) change from previous visit, relative to normal range</TranslatedText>
               </Decode>
            </CodeListItem>
            <CodeListItem CodedValue="_PHOS" OrderNumber="33">
               <Decode>
                  <TranslatedText>Phosphate (mmol/L) change from previous visit, relative to normal range</TranslatedText>
               </Decode>
            </CodeListItem>
            <CodeListItem CodedValue="_PROT" OrderNumber="34">
               <Decode>
                  <TranslatedText>Protein (g/L) change from previous visit, relative to normal range</TranslatedText>
               </Decode>
            </CodeListItem>
            <CodeListItem CodedValue="_SODIUM" OrderNumber="35">
               <Decode>
                  <TranslatedText>Sodium (mmol/L) change from previous visit, relative to normal range</TranslatedText>
               </Decode>
            </CodeListItem>
            <CodeListItem CodedValue="_URATE" OrderNumber="36">
               <Decode>
                  <TranslatedText>Urate (umol/L) change from previous visit, relative to normal range</TranslatedText>
               </Decode>
            </CodeListItem>
         </CodeList>
         <CodeList OID="CL.PARAMN_ADLBC" Name="PARAMN_ADLBC" DataType="integer">
            <CodeListItem CodedValue="18" OrderNumber="1">
               <Decode>
                  <TranslatedText>Sodium (mmol/L)</TranslatedText>
               </Decode>
            </CodeListItem>
            <CodeListItem CodedValue="19" OrderNumber="2">
               <Decode>
                  <TranslatedText>Potassium (mmol/L)</TranslatedText>
               </Decode>
            </CodeListItem>
            <CodeListItem CodedValue="20" OrderNumber="3">
               <Decode>
                  <TranslatedText>Chloride (mmol/L)</TranslatedText>
               </Decode>
            </CodeListItem>
            <CodeListItem CodedValue="21" OrderNumber="4">
               <Decode>
                  <TranslatedText>Bilirubin (umol/L)</TranslatedText>
               </Decode>
            </CodeListItem>
            <CodeListItem CodedValue="22" OrderNumber="5">
               <Decode>
                  <TranslatedText>Alkaline Phosphatase (U/L)</TranslatedText>
               </Decode>
            </CodeListItem>
            <CodeListItem CodedValue="23" OrderNumber="6">
               <Decode>
                  <TranslatedText>Gamma Glutamyl Transferase (U/L)</TranslatedText>
               </Decode>
            </CodeListItem>
            <CodeListItem CodedValue="24" OrderNumber="7">
               <Decode>
                  <TranslatedText>Alanine Aminotransferase (U/L)</TranslatedText>
               </Decode>
            </CodeListItem>
            <CodeListItem CodedValue="25" OrderNumber="8">
               <Decode>
                  <TranslatedText>Aspartate Aminotransferase (U/L)</TranslatedText>
               </Decode>
            </CodeListItem>
            <CodeListItem CodedValue="26" OrderNumber="9">
               <Decode>
                  <TranslatedText>Blood Urea Nitrogen (mmol/L)</TranslatedText>
               </Decode>
            </CodeListItem>
            <CodeListItem CodedValue="27" OrderNumber="10">
               <Decode>
                  <TranslatedText>Creatinine (umol/L)</TranslatedText>
               </Decode>
            </CodeListItem>
            <CodeListItem CodedValue="28" OrderNumber="11">
               <Decode>
                  <TranslatedText>Urate (umol/L)</TranslatedText>
               </Decode>
            </CodeListItem>
            <CodeListItem CodedValue="29" OrderNumber="12">
               <Decode>
                  <TranslatedText>Phosphate (mmol/L)</TranslatedText>
               </Decode>
            </CodeListItem>
            <CodeListItem CodedValue="30" OrderNumber="13">
               <Decode>
                  <TranslatedText>Calcium (mmol/L)</TranslatedText>
               </Decode>
            </CodeListItem>
            <CodeListItem CodedValue="31" OrderNumber="14">
               <Decode>
                  <TranslatedText>Glucose (mmol/L)</TranslatedText>
               </Decode>
            </CodeListItem>
            <CodeListItem CodedValue="32" OrderNumber="15">
               <Decode>
                  <TranslatedText>Protein (g/L)</TranslatedText>
               </Decode>
            </CodeListItem>
            <CodeListItem CodedValue="33" OrderNumber="16">
               <Decode>
                  <TranslatedText>Albumin (g/L)</TranslatedText>
               </Decode>
            </CodeListItem>
            <CodeListItem CodedValue="34" OrderNumber="17">
               <Decode>
                  <TranslatedText>Cholesterol (mmol/L)</TranslatedText>
               </Decode>
            </CodeListItem>
            <CodeListItem CodedValue="35" OrderNumber="18">
               <Decode>
                  <TranslatedText>Creatine Kinase (U/L)</TranslatedText>
               </Decode>
            </CodeListItem>
            <CodeListItem CodedValue="118" OrderNumber="19">
               <Decode>
                  <TranslatedText>Sodium (mmol/L) change from previous visit, relative to normal range</TranslatedText>
               </Decode>
            </CodeListItem>
            <CodeListItem CodedValue="119" OrderNumber="20">
               <Decode>
                  <TranslatedText>Potassium (mmol/L) change from previous visit, relative to normal range</TranslatedText>
               </Decode>
            </CodeListItem>
            <CodeListItem CodedValue="120" OrderNumber="21">
               <Decode>
                  <TranslatedText>Chloride (mmol/L) change from previous visit, relative to normal range</TranslatedText>
               </Decode>
            </CodeListItem>
            <CodeListItem CodedValue="121" OrderNumber="22">
               <Decode>
                  <TranslatedText>Bilirubin (umol/L) change from previous visit, relative to normal range</TranslatedText>
               </Decode>
            </CodeListItem>
            <CodeListItem CodedValue="122" OrderNumber="23">
               <Decode>
                  <TranslatedText>Alkaline Phosphatase (U/L) change from previous visit, relative to normal range</TranslatedText>
               </Decode>
            </CodeListItem>
            <CodeListItem CodedValue="123" OrderNumber="24">
               <Decode>
                  <TranslatedText>Gamma Glutamyl Transferase (U/L) change from previous visit, relative to normal range</TranslatedText>
               </Decode>
            </CodeListItem>
            <CodeListItem CodedValue="124" OrderNumber="25">
               <Decode>
                  <TranslatedText>Alanine Aminotransferase (U/L) change from previous visit, relative to normal range</TranslatedText>
               </Decode>
            </CodeListItem>
            <CodeListItem CodedValue="125" OrderNumber="26">
               <Decode>
                  <TranslatedText>Aspartate Aminotransferase (U/L) change from previous visit, relative to normal range</TranslatedText>
               </Decode>
            </CodeListItem>
            <CodeListItem CodedValue="126" OrderNumber="27">
               <Decode>
                  <TranslatedText>Blood Urea Nitrogen (mmol/L) change from previous visit, relative to normal range</TranslatedText>
               </Decode>
            </CodeListItem>
            <CodeListItem CodedValue="127" OrderNumber="28">
               <Decode>
                  <TranslatedText>Creatinine (umol/L) change from previous visit, relative to normal range</TranslatedText>
               </Decode>
            </CodeListItem>
            <CodeListItem CodedValue="128" OrderNumber="29">
               <Decode>
                  <TranslatedText>Urate (umol/L) change from previous visit, relative to normal range</TranslatedText>
               </Decode>
            </CodeListItem>
            <CodeListItem CodedValue="129" OrderNumber="30">
               <Decode>
                  <TranslatedText>Phosphate (mmol/L) change from previous visit, relative to normal range</TranslatedText>
               </Decode>
            </CodeListItem>
            <CodeListItem CodedValue="130" OrderNumber="31">
               <Decode>
                  <TranslatedText>Calcium (mmol/L) change from previous visit, relative to normal range</TranslatedText>
               </Decode>
            </CodeListItem>
            <CodeListItem CodedValue="131" OrderNumber="32">
               <Decode>
                  <TranslatedText>Glucose (mmol/L) change from previous visit, relative to normal range</TranslatedText>
               </Decode>
            </CodeListItem>
            <CodeListItem CodedValue="132" OrderNumber="33">
               <Decode>
                  <TranslatedText>Protein (g/L) change from previous visit, relative to normal range</TranslatedText>
               </Decode>
            </CodeListItem>
            <CodeListItem CodedValue="133" OrderNumber="34">
               <Decode>
                  <TranslatedText>Albumin (g/L) change from previous visit, relative to normal range</TranslatedText>
               </Decode>
            </CodeListItem>
            <CodeListItem CodedValue="134" OrderNumber="35">
               <Decode>
                  <TranslatedText>Cholesterol (mmol/L) change from previous visit, relative to normal range</TranslatedText>
               </Decode>
            </CodeListItem>
            <CodeListItem CodedValue="135" OrderNumber="36">
               <Decode>
                  <TranslatedText>Creatine Kinase (U/L) change from previous visit, relative to normal range</TranslatedText>
               </Decode>
            </CodeListItem>
         </CodeList>
         <CodeList OID="CL.RACE" Name="RACE" DataType="text">
            <CodeListItem CodedValue="WHITE" OrderNumber="1">
               <Decode>
                  <TranslatedText>WHITE</TranslatedText>
               </Decode>
               <Alias Name="C41261" Context="nci:ExtCodeID"/>
            </CodeListItem>
            <CodeListItem CodedValue="BLACK OR AFRICAN AMERICAN" OrderNumber="2">
               <Decode>
                  <TranslatedText>BLACK OR AFRICAN AMERICAN</TranslatedText>
               </Decode>
               <Alias Name="C16352" Context="nci:ExtCodeID"/>
            </CodeListItem>
            <CodeListItem CodedValue="AMERICAN INDIAN OR ALASKA NATIVE" OrderNumber="3">
               <Decode>
                  <TranslatedText>AMERICAN INDIAN OR ALASKA NATIVE</TranslatedText>
               </Decode>
               <Alias Name="C41259" Context="nci:ExtCodeID"/>
            </CodeListItem>
            <CodeListItem CodedValue="ASIAN" OrderNumber="4">
               <Decode>
                  <TranslatedText>ASIAN</TranslatedText>
               </Decode>
               <Alias Name="C41260" Context="nci:ExtCodeID"/>
            </CodeListItem>
            <CodeListItem CodedValue="NATIVE HAWAIIAN OR OTHER PACIFIC ISLANDER" OrderNumber="5">
               <Decode>
                  <TranslatedText>NATIVE HAWAIIAN OR OTHER PACIFIC ISLANDER</TranslatedText>
               </Decode>
               <Alias Name="C41219" Context="nci:ExtCodeID"/>
            </CodeListItem>
            <Alias Name="C74457" Context="nci:ExtCodeID"/>
         </CodeList>
         <CodeList OID="CL.RACEN" Name="RACEN" DataType="integer">
            <CodeListItem CodedValue="1" OrderNumber="1">
               <Decode>
                  <TranslatedText>WHITE</TranslatedText>
               </Decode>
            </CodeListItem>
            <CodeListItem CodedValue="2" OrderNumber="2">
               <Decode>
                  <TranslatedText>BLACK OR AFRICAN AMERICAN</TranslatedText>
               </Decode>
            </CodeListItem>
            <CodeListItem CodedValue="6" OrderNumber="3">
               <Decode>
                  <TranslatedText>AMERICAN INDIAN OR ALASKA NATIVE</TranslatedText>
               </Decode>
            </CodeListItem>
            <CodeListItem CodedValue="7" OrderNumber="4">
               <Decode>
                  <TranslatedText>ASIAN</TranslatedText>
               </Decode>
            </CodeListItem>
            <CodeListItem CodedValue="5" OrderNumber="5">
               <Decode>
                  <TranslatedText>NATIVE HAWAIIAN OR OTHER PACIFIC ISLANDER</TranslatedText>
               </Decode>
            </CodeListItem>
         </CodeList>
         <CodeList OID="CL.SEX" Name="SEX" DataType="text">
            <EnumeratedItem CodedValue="M" OrderNumber="1">
               <Alias Name="C20197" Context="nci:ExtCodeID"/>
            </EnumeratedItem>
            <EnumeratedItem CodedValue="F" OrderNumber="2">
               <Alias Name="C16576" Context="nci:ExtCodeID"/>
            </EnumeratedItem>
            <Alias Name="C66731" Context="nci:ExtCodeID"/>
         </CodeList>
         <CodeList OID="CL.VISIT" Name="VISIT" DataType="text">
            <CodeListItem CodedValue="SCREENING 1" OrderNumber="1">
               <Decode>
                  <TranslatedText>SCREENING 1</TranslatedText>
               </Decode>
            </CodeListItem>
            <CodeListItem CodedValue="UNSCHEDULED 1.1" OrderNumber="2">
               <Decode>
                  <TranslatedText>UNSCHEDULED 1.1</TranslatedText>
               </Decode>
            </CodeListItem>
            <CodeListItem CodedValue="UNSCHEDULED 1.2" OrderNumber="3">
               <Decode>
                  <TranslatedText>UNSCHEDULED 1.2</TranslatedText>
               </Decode>
            </CodeListItem>
            <CodeListItem CodedValue="UNSCHEDULED 1.3" OrderNumber="4">
               <Decode>
                  <TranslatedText>UNSCHEDULED 1.3</TranslatedText>
               </Decode>
            </CodeListItem>
            <CodeListItem CodedValue="SCREENING 2" OrderNumber="5">
               <Decode>
                  <TranslatedText>SCREENING 2</TranslatedText>
               </Decode>
            </CodeListItem>
            <CodeListItem CodedValue="BASELINE" OrderNumber="6">
               <Decode>
                  <TranslatedText>BASELINE</TranslatedText>
               </Decode>
            </CodeListItem>
            <CodeListItem CodedValue="UNSCHEDULED 3.1" OrderNumber="7">
               <Decode>
                  <TranslatedText>UNSCHEDULED 3.1</TranslatedText>
               </Decode>
            </CodeListItem>
            <CodeListItem CodedValue="AMBUL ECG PLACEMENT" OrderNumber="8">
               <Decode>
                  <TranslatedText>AMBUL ECG PLACEMENT</TranslatedText>
               </Decode>
            </CodeListItem>
            <CodeListItem CodedValue="WEEK 2" OrderNumber="9">
               <Decode>
                  <TranslatedText>WEEK 2</TranslatedText>
               </Decode>
            </CodeListItem>
            <CodeListItem CodedValue="UNSCHEDULED 4.1" OrderNumber="10">
               <Decode>
                  <TranslatedText>UNSCHEDULED 4.1</TranslatedText>
               </Decode>
            </CodeListItem>
            <CodeListItem CodedValue="UNSCHEDULED 4.2" OrderNumber="11">
               <Decode>
                  <TranslatedText>UNSCHEDULED 4.2</TranslatedText>
               </Decode>
            </CodeListItem>
            <CodeListItem CodedValue="WEEK 4" OrderNumber="12">
               <Decode>
                  <TranslatedText>WEEK 4</TranslatedText>
               </Decode>
            </CodeListItem>
            <CodeListItem CodedValue="UNSCHEDULED 5.1" OrderNumber="13">
               <Decode>
                  <TranslatedText>UNSCHEDULED 5.1</TranslatedText>
               </Decode>
            </CodeListItem>
            <CodeListItem CodedValue="AMBUL ECG REMOVAL" OrderNumber="14">
               <Decode>
                  <TranslatedText>AMBUL ECG REMOVAL</TranslatedText>
               </Decode>
            </CodeListItem>
            <CodeListItem CodedValue="UNSCHEDULED 6.1" OrderNumber="15">
               <Decode>
                  <TranslatedText>UNSCHEDULED 6.1</TranslatedText>
               </Decode>
            </CodeListItem>
            <CodeListItem CodedValue="WEEK 6" OrderNumber="16">
               <Decode>
                  <TranslatedText>WEEK 6</TranslatedText>
               </Decode>
            </CodeListItem>
            <CodeListItem CodedValue="UNSCHEDULED 7.1" OrderNumber="17">
               <Decode>
                  <TranslatedText>UNSCHEDULED 7.1</TranslatedText>
               </Decode>
            </CodeListItem>
            <CodeListItem CodedValue="WEEK 8" OrderNumber="18">
               <Decode>
                  <TranslatedText>WEEK 8</TranslatedText>
               </Decode>
            </CodeListItem>
            <CodeListItem CodedValue="WEEK 10 (T)" OrderNumber="19">
               <Decode>
                  <TranslatedText>WEEK 10 (T)</TranslatedText>
               </Decode>
            </CodeListItem>
            <CodeListItem CodedValue="UNSCHEDULED 8.2" OrderNumber="20">
               <Decode>
                  <TranslatedText>UNSCHEDULED 8.2</TranslatedText>
               </Decode>
            </CodeListItem>
            <CodeListItem CodedValue="WEEK 12" OrderNumber="21">
               <Decode>
                  <TranslatedText>WEEK 12</TranslatedText>
               </Decode>
            </CodeListItem>
            <CodeListItem CodedValue="WEEK 14 (T)" OrderNumber="22">
               <Decode>
                  <TranslatedText>WEEK 14 (T)</TranslatedText>
               </Decode>
            </CodeListItem>
            <CodeListItem CodedValue="UNSCHEDULED 9.2" OrderNumber="23">
               <Decode>
                  <TranslatedText>UNSCHEDULED 9.2</TranslatedText>
               </Decode>
            </CodeListItem>
            <CodeListItem CodedValue="UNSCHEDULED 9.3" OrderNumber="24">
               <Decode>
                  <TranslatedText>UNSCHEDULED 9.3</TranslatedText>
               </Decode>
            </CodeListItem>
            <CodeListItem CodedValue="WEEK 16" OrderNumber="25">
               <Decode>
                  <TranslatedText>WEEK 16</TranslatedText>
               </Decode>
            </CodeListItem>
            <CodeListItem CodedValue="WEEK 18 (T)" OrderNumber="26">
               <Decode>
                  <TranslatedText>WEEK 18 (T)</TranslatedText>
               </Decode>
            </CodeListItem>
            <CodeListItem CodedValue="UNSCHEDULED 10.2" OrderNumber="27">
               <Decode>
                  <TranslatedText>UNSCHEDULED 10.2</TranslatedText>
               </Decode>
            </CodeListItem>
            <CodeListItem CodedValue="WEEK 20" OrderNumber="28">
               <Decode>
                  <TranslatedText>WEEK 20</TranslatedText>
               </Decode>
            </CodeListItem>
            <CodeListItem CodedValue="WEEK 22 (T)" OrderNumber="29">
               <Decode>
                  <TranslatedText>WEEK 22 (T)</TranslatedText>
               </Decode>
            </CodeListItem>
            <CodeListItem CodedValue="UNSCHEDULED 11.2" OrderNumber="30">
               <Decode>
                  <TranslatedText>UNSCHEDULED 11.2</TranslatedText>
               </Decode>
            </CodeListItem>
            <CodeListItem CodedValue="WEEK 24" OrderNumber="31">
               <Decode>
                  <TranslatedText>WEEK 24</TranslatedText>
               </Decode>
            </CodeListItem>
            <CodeListItem CodedValue="UNSCHEDULED 12.1" OrderNumber="32">
               <Decode>
                  <TranslatedText>UNSCHEDULED 12.1</TranslatedText>
               </Decode>
            </CodeListItem>
            <CodeListItem CodedValue="WEEK 26" OrderNumber="33">
               <Decode>
                  <TranslatedText>WEEK 26</TranslatedText>
               </Decode>
            </CodeListItem>
            <CodeListItem CodedValue="UNSCHEDULED 13.1" OrderNumber="34">
               <Decode>
                  <TranslatedText>UNSCHEDULED 13.1</TranslatedText>
               </Decode>
            </CodeListItem>
            <CodeListItem CodedValue="AE FOLLOW-UP" OrderNumber="35">
               <Decode>
                  <TranslatedText>AE FOLLOW-UP</TranslatedText>
               </Decode>
            </CodeListItem>
            <CodeListItem CodedValue="RETRIEVAL" OrderNumber="36">
               <Decode>
                  <TranslatedText>RETRIEVAL</TranslatedText>
               </Decode>
            </CodeListItem>
            <CodeListItem CodedValue="Rash followup" OrderNumber="37">
               <Decode>
                  <TranslatedText>Rash followup</TranslatedText>
               </Decode>
            </CodeListItem>
         </CodeList>
         <CodeList OID="CL.VISITNUM" Name="VISITNUM" DataType="float">
            <CodeListItem CodedValue="1" OrderNumber="1">
               <Decode>
                  <TranslatedText>SCREENING 1</TranslatedText>
               </Decode>
            </CodeListItem>
            <CodeListItem CodedValue="1.1" OrderNumber="2">
               <Decode>
                  <TranslatedText>UNSCHEDULED 1.1</TranslatedText>
               </Decode>
            </CodeListItem>
            <CodeListItem CodedValue="1.2" OrderNumber="3">
               <Decode>
                  <TranslatedText>UNSCHEDULED 1.2</TranslatedText>
               </Decode>
            </CodeListItem>
            <CodeListItem CodedValue="1.3" OrderNumber="4">
               <Decode>
                  <TranslatedText>UNSCHEDULED 1.3</TranslatedText>
               </Decode>
            </CodeListItem>
            <CodeListItem CodedValue="2" OrderNumber="5">
               <Decode>
                  <TranslatedText>SCREENING 2</TranslatedText>
               </Decode>
            </CodeListItem>
            <CodeListItem CodedValue="3" OrderNumber="6">
               <Decode>
                  <TranslatedText>BASELINE</TranslatedText>
               </Decode>
            </CodeListItem>
            <CodeListItem CodedValue="3.1" OrderNumber="7">
               <Decode>
                  <TranslatedText>UNSCHEDULED 3.1</TranslatedText>
               </Decode>
            </CodeListItem>
            <CodeListItem CodedValue="3.5" OrderNumber="8">
               <Decode>
                  <TranslatedText>AMBUL ECG PLACEMENT</TranslatedText>
               </Decode>
            </CodeListItem>
            <CodeListItem CodedValue="4" OrderNumber="9">
               <Decode>
                  <TranslatedText>WEEK 2</TranslatedText>
               </Decode>
            </CodeListItem>
            <CodeListItem CodedValue="4.1" OrderNumber="10">
               <Decode>
                  <TranslatedText>UNSCHEDULED 4.1</TranslatedText>
               </Decode>
            </CodeListItem>
            <CodeListItem CodedValue="4.2" OrderNumber="11">
               <Decode>
                  <TranslatedText>UNSCHEDULED 4.2</TranslatedText>
               </Decode>
            </CodeListItem>
            <CodeListItem CodedValue="5" OrderNumber="12">
               <Decode>
                  <TranslatedText>WEEK 4</TranslatedText>
               </Decode>
            </CodeListItem>
            <CodeListItem CodedValue="5.1" OrderNumber="13">
               <Decode>
                  <TranslatedText>UNSCHEDULED 5.1</TranslatedText>
               </Decode>
            </CodeListItem>
            <CodeListItem CodedValue="6" OrderNumber="14">
               <Decode>
                  <TranslatedText>AMBUL ECG REMOVAL</TranslatedText>
               </Decode>
            </CodeListItem>
            <CodeListItem CodedValue="6.1" OrderNumber="15">
               <Decode>
                  <TranslatedText>UNSCHEDULED 6.1</TranslatedText>
               </Decode>
            </CodeListItem>
            <CodeListItem CodedValue="7" OrderNumber="16">
               <Decode>
                  <TranslatedText>WEEK 6</TranslatedText>
               </Decode>
            </CodeListItem>
            <CodeListItem CodedValue="7.1" OrderNumber="17">
               <Decode>
                  <TranslatedText>UNSCHEDULED 7.1</TranslatedText>
               </Decode>
            </CodeListItem>
            <CodeListItem CodedValue="8" OrderNumber="18">
               <Decode>
                  <TranslatedText>WEEK 8</TranslatedText>
               </Decode>
            </CodeListItem>
            <CodeListItem CodedValue="8.1" OrderNumber="19">
               <Decode>
                  <TranslatedText>WEEK 10 (T)</TranslatedText>
               </Decode>
            </CodeListItem>
            <CodeListItem CodedValue="8.2" OrderNumber="20">
               <Decode>
                  <TranslatedText>UNSCHEDULED 8.2</TranslatedText>
               </Decode>
            </CodeListItem>
            <CodeListItem CodedValue="9" OrderNumber="21">
               <Decode>
                  <TranslatedText>WEEK 12</TranslatedText>
               </Decode>
            </CodeListItem>
            <CodeListItem CodedValue="9.1" OrderNumber="22">
               <Decode>
                  <TranslatedText>WEEK 14 (T)</TranslatedText>
               </Decode>
            </CodeListItem>
            <CodeListItem CodedValue="9.2" OrderNumber="23">
               <Decode>
                  <TranslatedText>UNSCHEDULED 9.2</TranslatedText>
               </Decode>
            </CodeListItem>
            <CodeListItem CodedValue="9.3" OrderNumber="24">
               <Decode>
                  <TranslatedText>UNSCHEDULED 9.3</TranslatedText>
               </Decode>
            </CodeListItem>
            <CodeListItem CodedValue="10" OrderNumber="25">
               <Decode>
                  <TranslatedText>WEEK 16</TranslatedText>
               </Decode>
            </CodeListItem>
            <CodeListItem CodedValue="10.1" OrderNumber="26">
               <Decode>
                  <TranslatedText>WEEK 18 (T)</TranslatedText>
               </Decode>
            </CodeListItem>
            <CodeListItem CodedValue="10.2" OrderNumber="27">
               <Decode>
                  <TranslatedText>UNSCHEDULED 10.2</TranslatedText>
               </Decode>
            </CodeListItem>
            <CodeListItem CodedValue="11" OrderNumber="28">
               <Decode>
                  <TranslatedText>WEEK 20</TranslatedText>
               </Decode>
            </CodeListItem>
            <CodeListItem CodedValue="11.1" OrderNumber="29">
               <Decode>
                  <TranslatedText>WEEK 22 (T)</TranslatedText>
               </Decode>
            </CodeListItem>
            <CodeListItem CodedValue="11.2" OrderNumber="30">
               <Decode>
                  <TranslatedText>UNSCHEDULED 11.2</TranslatedText>
               </Decode>
            </CodeListItem>
            <CodeListItem CodedValue="12" OrderNumber="31">
               <Decode>
                  <TranslatedText>WEEK 24</TranslatedText>
               </Decode>
            </CodeListItem>
            <CodeListItem CodedValue="12.1" OrderNumber="32">
               <Decode>
                  <TranslatedText>UNSCHEDULED 12.1</TranslatedText>
               </Decode>
            </CodeListItem>
            <CodeListItem CodedValue="13" OrderNumber="33">
               <Decode>
                  <TranslatedText>WEEK 26</TranslatedText>
               </Decode>
            </CodeListItem>
            <CodeListItem CodedValue="13.1" OrderNumber="34">
               <Decode>
                  <TranslatedText>UNSCHEDULED 13.1</TranslatedText>
               </Decode>
            </CodeListItem>
            <CodeListItem CodedValue="101" OrderNumber="35">
               <Decode>
                  <TranslatedText>AE FOLLOW-UP</TranslatedText>
               </Decode>
            </CodeListItem>
            <CodeListItem CodedValue="201" OrderNumber="36">
               <Decode>
                  <TranslatedText>RETRIEVAL</TranslatedText>
               </Decode>
            </CodeListItem>
            <CodeListItem CodedValue="501" OrderNumber="37">
               <Decode>
                  <TranslatedText>Rash followup</TranslatedText>
               </Decode>
            </CodeListItem>
         </CodeList>
         <CodeList OID="CL.YN" Name="YN" DataType="text">
            <CodeListItem CodedValue="Y" OrderNumber="1">
               <Decode>
                  <TranslatedText>Yes</TranslatedText>
               </Decode>
               <Alias Name="C49488" Context="nci:ExtCodeID"/>
            </CodeListItem>
            <CodeListItem CodedValue="N" OrderNumber="2">
               <Decode>
                  <TranslatedText>No</TranslatedText>
               </Decode>
               <Alias Name="C49487" Context="nci:ExtCodeID"/>
            </CodeListItem>
            <Alias Name="C66742" Context="nci:ExtCodeID"/>
         </CodeList>
         <CodeList OID="CL.AEDICT" Name="ADVERSE EVENT DICTIONARY" DataType="text">
            <ExternalCodeList Dictionary="MedDRA" Version="8.0"/>
         </CodeList>
         <MethodDef OID="MT.ADAE.ADURN" Name="Algorithm to derive ADAE.ADURN" Type="Computation">
            <Description>
               <TranslatedText>ADURN=AENDT-ASTDT+1</TranslatedText>
            </Description>
         </MethodDef>
         <MethodDef OID="MT.ADAE.ADURU" Name="Algorithm to derive ADAE.ADURU" Type="Computation">
            <Description>
               <TranslatedText>If ADURN is not missing then ADURU='DAYS'</TranslatedText>
            </Description>
         </MethodDef>
         <MethodDef OID="MT.ADAE.AEACN" Name="Algorithm to derive ADAE.AEACN" Type="Computation">
            <Description>
               <TranslatedText>AE.AEACN</TranslatedText>
            </Description>
         </MethodDef>
         <MethodDef OID="MT.ADAE.AEBODSYS" Name="Algorithm to derive ADAE.AEBODSYS"
                    Type="Computation">
            <Description>
               <TranslatedText>AE.AEBODSYS</TranslatedText>
            </Description>
         </MethodDef>
         <MethodDef OID="MT.ADAE.AEDECOD" Name="Algorithm to derive ADAE.AEDECOD"
                    Type="Computation">
            <Description>
               <TranslatedText>AE.AEDECOD</TranslatedText>
            </Description>
         </MethodDef>
         <MethodDef OID="MT.ADAE.AEHLGT" Name="Algorithm to derive ADAE.AEHLGT" Type="Computation">
            <Description>
               <TranslatedText>AE.AEHLGT</TranslatedText>
            </Description>
         </MethodDef>
         <MethodDef OID="MT.ADAE.AEHLGTCD" Name="Algorithm to derive ADAE.AEHLGTCD"
                    Type="Computation">
            <Description>
               <TranslatedText>AE.AEHLGTCD</TranslatedText>
            </Description>
         </MethodDef>
         <MethodDef OID="MT.ADAE.AEHLT" Name="Algorithm to derive ADAE.AEHLT" Type="Computation">
            <Description>
               <TranslatedText>AE.AEHLT</TranslatedText>
            </Description>
         </MethodDef>
         <MethodDef OID="MT.ADAE.AEHLTCD" Name="Algorithm to derive ADAE.AEHLTCD"
                    Type="Computation">
            <Description>
               <TranslatedText>AE.AEHLTCD</TranslatedText>
            </Description>
         </MethodDef>
         <MethodDef OID="MT.ADAE.AELLT" Name="Algorithm to derive ADAE.AELLT" Type="Computation">
            <Description>
               <TranslatedText>AE.AELLT</TranslatedText>
            </Description>
         </MethodDef>
         <MethodDef OID="MT.ADAE.AELLTCD" Name="Algorithm to derive ADAE.AELLTCD"
                    Type="Computation">
            <Description>
               <TranslatedText>AE.AELLTCD</TranslatedText>
            </Description>
         </MethodDef>
         <MethodDef OID="MT.ADAE.AENDT" Name="Algorithm to derive ADAE.AENDT" Type="Computation">
            <Description>
               <TranslatedText>AE.AEENDTC, converted to a numeric SAS date</TranslatedText>
            </Description>
         </MethodDef>
         <MethodDef OID="MT.ADAE.AENDY" Name="Algorithm to derive ADAE.AENDY" Type="Computation">
            <Description>
               <TranslatedText>IF AENDT&gt;=TRTSDT&gt;MISSING then AENDY=AENDT-TRTSDT+1 Else if TRTSDT&gt;AENDT&gt;MISSING then AENDY=AENDT-TRTSDT</TranslatedText>
            </Description>
         </MethodDef>
         <MethodDef OID="MT.ADAE.AEOUT" Name="Algorithm to derive ADAE.AEOUT" Type="Computation">
            <Description>
               <TranslatedText>AE.AEOUT</TranslatedText>
            </Description>
         </MethodDef>
         <MethodDef OID="MT.ADAE.AEPTCD" Name="Algorithm to derive ADAE.AEPTCD" Type="Computation">
            <Description>
               <TranslatedText>AE.AEPTCD</TranslatedText>
            </Description>
         </MethodDef>
         <MethodDef OID="MT.ADAE.AEREL" Name="Algorithm to derive ADAE.AEREL" Type="Computation">
            <Description>
               <TranslatedText>AE.AEREL</TranslatedText>
            </Description>
         </MethodDef>
         <MethodDef OID="MT.ADAE.AESCAN" Name="Algorithm to derive ADAE.AESCAN" Type="Computation">
            <Description>
               <TranslatedText>AE.AESCAN</TranslatedText>
            </Description>
         </MethodDef>
         <MethodDef OID="MT.ADAE.AESCONG" Name="Algorithm to derive ADAE.AESCONG"
                    Type="Computation">
            <Description>
               <TranslatedText>AE.AESCONG</TranslatedText>
            </Description>
         </MethodDef>
         <MethodDef OID="MT.ADAE.AESDISAB" Name="Algorithm to derive ADAE.AESDISAB"
                    Type="Computation">
            <Description>
               <TranslatedText>AE.AESDISAB</TranslatedText>
            </Description>
         </MethodDef>
         <MethodDef OID="MT.ADAE.AESDTH" Name="Algorithm to derive ADAE.AESDTH" Type="Computation">
            <Description>
               <TranslatedText>AE.AESDTH</TranslatedText>
            </Description>
         </MethodDef>
         <MethodDef OID="MT.ADAE.AESEQ" Name="Algorithm to derive ADAE.AESEQ" Type="Computation">
            <Description>
               <TranslatedText>AE.AESEQ</TranslatedText>
            </Description>
         </MethodDef>
         <MethodDef OID="MT.ADAE.AESER" Name="Algorithm to derive ADAE.AESER" Type="Computation">
            <Description>
               <TranslatedText>AE.AESER</TranslatedText>
            </Description>
         </MethodDef>
         <MethodDef OID="MT.ADAE.AESEV" Name="Algorithm to derive ADAE.AESEV" Type="Computation">
            <Description>
               <TranslatedText>AE.AESEV</TranslatedText>
            </Description>
         </MethodDef>
         <MethodDef OID="MT.ADAE.AESHOSP" Name="Algorithm to derive ADAE.AESHOSP"
                    Type="Computation">
            <Description>
               <TranslatedText>AE.AESHOSP</TranslatedText>
            </Description>
         </MethodDef>
         <MethodDef OID="MT.ADAE.AESLIFE" Name="Algorithm to derive ADAE.AESLIFE"
                    Type="Computation">
            <Description>
               <TranslatedText>AE.AESLIFE</TranslatedText>
            </Description>
         </MethodDef>
         <MethodDef OID="MT.ADAE.AESOC" Name="Algorithm to derive ADAE.AESOC" Type="Computation">
            <Description>
               <TranslatedText>AE.AESOC</TranslatedText>
            </Description>
         </MethodDef>
         <MethodDef OID="MT.ADAE.AESOCCD" Name="Algorithm to derive ADAE.AESOCCD"
                    Type="Computation">
            <Description>
               <TranslatedText>AE.AESOCCD</TranslatedText>
            </Description>
         </MethodDef>
         <MethodDef OID="MT.ADAE.AESOD" Name="Algorithm to derive ADAE.AESOD" Type="Computation">
            <Description>
               <TranslatedText>AE.AESOD</TranslatedText>
            </Description>
         </MethodDef>
         <MethodDef OID="MT.ADAE.AETERM" Name="Algorithm to derive ADAE.AETERM" Type="Computation">
            <Description>
               <TranslatedText>AE.AETERM</TranslatedText>
            </Description>
         </MethodDef>
         <MethodDef OID="MT.ADAE.AGE" Name="Algorithm to derive ADAE.AGE" Type="Computation">
            <Description>
               <TranslatedText>ADSL.AGE</TranslatedText>
            </Description>
         </MethodDef>
         <MethodDef OID="MT.ADAE.AGEGR1" Name="Algorithm to derive ADAE.AGEGR1" Type="Computation">
            <Description>
               <TranslatedText>ADSL.AGEGR1</TranslatedText>
            </Description>
         </MethodDef>
         <MethodDef OID="MT.ADAE.AGEGR1N" Name="Algorithm to derive ADAE.AGEGR1N"
                    Type="Computation">
            <Description>
               <TranslatedText>ADSL.AGEGR1N</TranslatedText>
            </Description>
         </MethodDef>
         <MethodDef OID="MT.ADAE.AOCC01FL" Name="Algorithm to derive ADAE.AOCC01FL"
                    Type="Computation">
            <Description>
               <TranslatedText>Subset to CQ01NAM='' and TRTEMFL='Y' and sort by Subject (USUBJID), Start Date (ASTDT), and Sequence Number (AESEQ) and flag the first record (set AOCC01FL='Y') within each Subject (Flag First Treatment Emergent Dermatological Event for Time to Event Analysis)</TranslatedText>
            </Description>
         </MethodDef>
         <MethodDef OID="MT.ADAE.AOCC02FL" Name="Algorithm to derive ADAE.AOCC02FL"
                    Type="Computation">
            <Description>
               <TranslatedText>Subset to TRTEMFL='Y' and AESER='Y' and sort by Subject (USUBJID), Start Date (ASTDT), and Sequence Number (AESEQ) and flag the first record (set AOCC02FL='Y') within each Subject</TranslatedText>
            </Description>
         </MethodDef>
         <MethodDef OID="MT.ADAE.AOCC03FL" Name="Algorithm to derive ADAE.AOCC03FL"
                    Type="Computation">
            <Description>
               <TranslatedText>Subset to TRTEMFL='Y' and AESER='Y' and sort by Subject (USUBJID), System Organ Class (AEBODSYS), Start Date (ASTDT), and Sequence Number (AESEQ) and flag the first record (set AOCC03FL='Y') within each Subject and SOC</TranslatedText>
            </Description>
         </MethodDef>
         <MethodDef OID="MT.ADAE.AOCC04FL" Name="Algorithm to derive ADAE.AOCC04FL"
                    Type="Computation">
            <Description>
               <TranslatedText>Subset to TRTEMFL='Y' and AESER='Y' and sort by Subject (USUBJID), System Organ Class (AEBODSYS), Preferred Term (AEDECOD), Start Date (ASTDT), and Sequence Number (AESEQ) and flag the first record (set AOCC04FL='Y') within each Subject, SOC, and PT</TranslatedText>
            </Description>
         </MethodDef>
         <MethodDef OID="MT.ADAE.AOCCFL" Name="Algorithm to derive ADAE.AOCCFL" Type="Computation">
            <Description>
               <TranslatedText>Subset to TRTEMFL='Y' and sort by Subject (USUBJID), Start Date (ASTDT), and Sequence Number (AESEQ) and flag the first record (set AOCCFL='Y') within each Subject</TranslatedText>
            </Description>
         </MethodDef>
         <MethodDef OID="MT.ADAE.AOCCPFL" Name="Algorithm to derive ADAE.AOCCPFL"
                    Type="Computation">
            <Description>
               <TranslatedText>Subset to TRTEMFL='Y' and sort by Subject (USUBJID), System Organ Class (AEBODSYS), Preferred Term (AEDECOD), Start Date (ASTDT), and Sequence Number (AESEQ) and flag the first record (set AOCCPFL='Y') within each Subject, SOC, and PT</TranslatedText>
            </Description>
         </MethodDef>
         <MethodDef OID="MT.ADAE.AOCCSFL" Name="Algorithm to derive ADAE.AOCCSFL"
                    Type="Computation">
            <Description>
               <TranslatedText>Subset to TRTEMFL='Y' and sort by Subject (USUBJID), System Organ Class (AEBODSYS), Start Date (ASTDT), and Sequence Number (AESEQ) and flag the first record (set AOCCSFL='Y') within each Subject and SOC</TranslatedText>
            </Description>
         </MethodDef>
         <MethodDef OID="MT.ADAE.ASTDT" Name="Algorithm to derive ADAE.ASTDT" Type="Computation">
            <Description>
               <TranslatedText>AE.AESTDTC, converted to a numeric SAS date. Some events with partial dates are imputed in a conservative manner. If the day component is missing, a value of '01' is used. If both the month and day are missing no imputation is performed as these dates clearly indicate a start prior to the beginning of treatment. There are no events with completely missing start dates.</TranslatedText>
            </Description>
         </MethodDef>
         <MethodDef OID="MT.ADAE.ASTDTF" Name="Algorithm to derive ADAE.ASTDTF" Type="Computation">
            <Description>
               <TranslatedText>ASTDTF='D' if the day value within the character date is imputed. Note that only day values needed to be imputed for this study.</TranslatedText>
            </Description>
         </MethodDef>
         <MethodDef OID="MT.ADAE.ASTDY" Name="Algorithm to derive ADAE.ASTDY" Type="Computation">
            <Description>
               <TranslatedText>IF ASTDT&gt;=TRTSDT&gt;MISSING then ASTDY=ASTDT-TRTSDT+1 Else if TRTSDT&gt;ASTDT&gt;MISSING then ASTDY=ASTDT-TRTSDT</TranslatedText>
            </Description>
         </MethodDef>
         <MethodDef OID="MT.ADAE.CQ01NAM" Name="Algorithm to derive ADAE.CQ01NAM"
                    Type="Computation">
            <Description>
               <TranslatedText>If TRTEMFL='Y' and AEDECOD contains any of the character strings of ('APPLICATION', 'DERMATITIS', 'ERYTHEMA', 'BLISTER') OR if AEBODSYS='SKIN AND SUBCUTANEOUS TISSUE DISORDERS' but AEDECOD is not in ('COLD SWEAT', 'HYPERHIDROSIS', 'ALOPECIA') then CQ01NAM='DERMATOLOGIC EVENTS' Otherwise CQ01NAM=NULL</TranslatedText>
            </Description>
         </MethodDef>
         <MethodDef OID="MT.ADAE.RACE" Name="Algorithm to derive ADAE.RACE" Type="Computation">
            <Description>
               <TranslatedText>ADSL.RACE</TranslatedText>
            </Description>
         </MethodDef>
         <MethodDef OID="MT.ADAE.RACEN" Name="Algorithm to derive ADAE.RACEN" Type="Computation">
            <Description>
               <TranslatedText>ADSL.RACEN</TranslatedText>
            </Description>
         </MethodDef>
         <MethodDef OID="MT.ADAE.SAFFL" Name="Algorithm to derive ADAE.SAFFL" Type="Computation">
            <Description>
               <TranslatedText>ADSL.SAFFL</TranslatedText>
            </Description>
         </MethodDef>
         <MethodDef OID="MT.ADAE.SEX" Name="Algorithm to derive ADAE.SEX" Type="Computation">
            <Description>
               <TranslatedText>ADSL.SEX</TranslatedText>
            </Description>
         </MethodDef>
         <MethodDef OID="MT.ADAE.SITEID" Name="Algorithm to derive ADAE.SITEID" Type="Computation">
            <Description>
               <TranslatedText>ADSL.SITEID</TranslatedText>
            </Description>
         </MethodDef>
         <MethodDef OID="MT.ADAE.TRTP" Name="Algorithm to derive ADAE.TRTP" Type="Computation">
            <Description>
               <TranslatedText>If ADAE.TRTEMFL='Y' then ADAE.TRTP=ADSL.TRT01P</TranslatedText>
            </Description>
         </MethodDef>
         <MethodDef OID="MT.ADAE.TRTPN" Name="Algorithm to derive ADAE.TRTPN" Type="Computation">
            <Description>
               <TranslatedText>If ADAE.TRTEMFL='Y' then ADAE.TRTPN=ADSL.TRT01PN</TranslatedText>
            </Description>
         </MethodDef>
         <MethodDef OID="MT.ADAE.TRTA" Name="Algorithm to derive ADAE.TRTA" Type="Computation">
            <Description>
               <TranslatedText>If ADAE.TRT01A contains 'High' and ADAE.TRTEMFL='Y' then:
if ADAE.ASTDT&gt;=start of dose date at Week 24 then ADAE.TRTA='Xanomeline Low Dose'
else if ADAE.ASTDT&gt;=start of dose date at Week 2 then ADAE.TRTA=ADAE.TRT01A
else if ADAE.ASTDT&gt;=start of dose date at Week 0 then ADAE.TRTA='Xanomeline Low Dose'
else if ADAE.TRT01A does not contain 'High' and ADAE.TRTEMFL='Y' then ADAE.TRTA=ADAE.TRT01A</TranslatedText>
            </Description>
         </MethodDef>
         <MethodDef OID="MT.ADAE.TRTAN" Name="Algorithm to derive ADAE.TRTAN" Type="Computation">
            <Description>
               <TranslatedText>If ADAE.TRT01A contains 'High' and ADAE.TRTEMFL='Y' then:
if ADAE.ASTDT&gt;=start of dose date at Week 24 then ADAE.TRTAN=54
else if ADAE.ASTDT&gt;=start of dose date at Week 2 then ADAE.TRTAN=ADAE.TRT01AN
else if ADAE.ASTDT&gt;=start of dose date at Week 0 then ADAE.TRTAN=54
else if ADAE.TRT01A does not contain 'High' and ADAE.TRTEMFL='Y' then ADAE.TRTAN=ADAE.TRT01AN</TranslatedText>
            </Description>
         </MethodDef>
         <MethodDef OID="MT.ADAE.TRTEDT" Name="Algorithm to derive ADAE.TRTEDT" Type="Computation">
            <Description>
               <TranslatedText>ADSL.TRTEDT</TranslatedText>
            </Description>
         </MethodDef>
         <MethodDef OID="MT.ADAE.TRTEMFL" Name="Algorithm to derive ADAE.TRTEMFL"
                    Type="Computation">
            <Description>
               <TranslatedText>If ASTDT &gt;= TRTSDT &gt; . then TRTEMFL='Y'. Otherwise TRTEMFL='N'</TranslatedText>
            </Description>
         </MethodDef>
         <MethodDef OID="MT.ADAE.TRTSDT" Name="Algorithm to derive ADAE.TRTSDT" Type="Computation">
            <Description>
               <TranslatedText>ADSL.TRTSDT</TranslatedText>
            </Description>
         </MethodDef>
         <MethodDef OID="MT.ADLBC.A1HI" Name="Algorithm to derive ADLBC.A1HI" Type="Computation">
            <Description>
               <TranslatedText>LB.LBSTNRHI</TranslatedText>
            </Description>
         </MethodDef>
         <MethodDef OID="MT.ADLBC.A1LO" Name="Algorithm to derive ADLBC.A1LO" Type="Computation">
            <Description>
               <TranslatedText>LB.LBSTNRLO</TranslatedText>
            </Description>
         </MethodDef>
         <MethodDef OID="MT.ADLBC.ADT" Name="Algorithm to derive ADLBC.ADT" Type="Computation">
            <Description>
               <TranslatedText>LB.LBDTC</TranslatedText>
            </Description>
         </MethodDef>
         <MethodDef OID="MT.ADLBC.ADY" Name="Algorithm to derive ADLBC.ADY" Type="Computation">
            <Description>
               <TranslatedText>LB.LBDY</TranslatedText>
            </Description>
         </MethodDef>
         <MethodDef OID="MT.ADLBC.AENTMTFL" Name="Algorithm to derive ADLBC.AENTMTFL"
                    Type="Computation">
            <Description>
               <TranslatedText>Last observed value for this lab parameter during treatment phase: 'Y' if VISITNUM=12, if subject discontinues prior to VISIT 12, then this variable is set to 'Y' if this is the last assessment of this analyte for the subject</TranslatedText>
            </Description>
         </MethodDef>
         <MethodDef OID="MT.ADLBC.ALBTRVAL" Name="Algorithm to derive ADLBC.ALBTRVAL"
                    Type="Computation">
            <Description>
               <TranslatedText>Maximum of [(1.5*LBSTRNHI)-LBSTRESN] and [LBSTRESN - (0.5*LBSTNRLO)]</TranslatedText>
            </Description>
         </MethodDef>
         <MethodDef OID="MT.ADLBC.ANL01FL" Name="Algorithm to derive ADLBC.ANL01FL"
                    Type="Computation">
            <Description>
               <TranslatedText>If ALBTRVAL  = max(ALBTRVAL) then ANL01FL is 'Y'</TranslatedText>
            </Description>
         </MethodDef>
         <MethodDef OID="MT.ADLBC.ANRIND" Name="Algorithm to derive ADLBC.ANRIND"
                    Type="Computation">
            <Description>
               <TranslatedText>if AVAL &lt; [0.5*LBSTNRLO) then ANRIND = 'L',
else if AVAL &gt; [1.5*LBSTRNHI) then ANRIND = 'H',
else ANRIND='N'</TranslatedText>
            </Description>
         </MethodDef>
         <MethodDef OID="MT.ADLBC.AVISIT" Name="Algorithm to derive ADLBC.AVISIT"
                    Type="Computation">
            <Description>
               <TranslatedText>Last observed value for this lab parameter during treatment phase: 'Y' if VISITNUM=12, if subject discontinues prior to VISIT 12, then this variable is set to 'Y' if this is the last assessment of this analyte for the subject</TranslatedText>
            </Description>
         </MethodDef>
         <MethodDef OID="MT.ADLBC.BASE" Name="Algorithm to derive ADLBC.BASE" Type="Computation">
            <Description>
               <TranslatedText>LB.LBSTNRHI</TranslatedText>
            </Description>
         </MethodDef>
         <MethodDef OID="MT.ADLBC.BNRIND" Name="Algorithm to derive ADLBC.BNRIND"
                    Type="Computation">
            <Description>
               <TranslatedText>if BASE &lt; [0.5*LBSTNRLO) then BNRIND = 'L',
else if BASE &gt; [1.5*LBSTRNHI) then BNRIND = 'H',
else BNRIND='N'</TranslatedText>
            </Description>
         </MethodDef>
         <MethodDef OID="MT.ADLBC.BR2A1HI" Name="Algorithm to derive ADLBC.BR2A1HI"
                    Type="Computation">
            <Description>
               <TranslatedText>AVAL / A1HI at baseline</TranslatedText>
            </Description>
         </MethodDef>
         <MethodDef OID="MT.ADLBC.BR2A1LO" Name="Algorithm to derive ADLBC.BR2A1LO"
                    Type="Computation">
            <Description>
               <TranslatedText>AVAL / A1LO at baseline</TranslatedText>
            </Description>
         </MethodDef>
         <MethodDef OID="MT.ADLBC.CHG" Name="Algorithm to derive ADLBC.CHG" Type="Computation">
            <Description>
               <TranslatedText>AVAL - BASE</TranslatedText>
            </Description>
         </MethodDef>
         <MethodDef OID="MT.ADLBC.PARAM" Name="Algorithm to derive ADLBC.PARAM" Type="Computation">
            <Description>
               <TranslatedText>Concatenated LB.LBTEST, '(',  LB.LBSTRESU and ')'</TranslatedText>
            </Description>
         </MethodDef>
         <MethodDef OID="MT.ADLBC.PARAMN" Name="Algorithm to derive ADLBC.PARAMN"
                    Type="Computation">
            <Description>
               <TranslatedText>Numeric code for Parameter</TranslatedText>
            </Description>
         </MethodDef>
         <MethodDef OID="MT.ADLBC.R2A1HI" Name="Algorithm to derive ADLBC.R2A1HI"
                    Type="Computation">
            <Description>
               <TranslatedText>AVAL / A1HI</TranslatedText>
            </Description>
         </MethodDef>
         <MethodDef OID="MT.ADLBC.R2A1LO" Name="Algorithm to derive ADLBC.R2A1LO"
                    Type="Computation">
            <Description>
               <TranslatedText>AVAL / A1LO</TranslatedText>
            </Description>
         </MethodDef>
         <MethodDef OID="MT.ADLBC.TRTA" Name="Algorithm to derive ADLBC.TRTA" Type="Computation">
            <Description>
               <TranslatedText>If ADLBC.TRT01A contains 'High' and ADLBC.VISIT does not begin with 'UNSCHEDULED' then:
if ADLBC.ADT&gt;start of dose date at Week 24 then ADLBC.TRTA='Xanomeline Low Dose'
else if ADLBC.ADT&gt;start of dose date at Week 2 then ADLBC.TRTA=ADLBC.TRT01A
else ADLBC.TRTA='Xanomeline Low Dose'
else if ADLBC.TRT01A does not contain 'High' and ADAE.VISIT does not begin with 'UNSCHEDULED' then ADLBC.TRTA=ADLBC.TRT01A</TranslatedText>
            </Description>
         </MethodDef>
         <MethodDef OID="MT.ADLBC.TRTAN" Name="Algorithm to derive ADLBC.TRTAN" Type="Computation">
            <Description>
               <TranslatedText>If ADLBC.TRT01A contains 'High' and ADLBC.VISIT does not begin with 'UNSCHEDULED' then:
if ADLBC.ADT&gt;start of dose date at Week 24 then ADLBC.TRTAN=54
else if ADLBC.ADT&gt;start of dose date at Week 2 then ADLBC.TRTAN=ADLBC.TRT01AN
else ADLBC.TRTAN=54
else if ADLBC.TRT01A does not contain 'High' and ADAE.VISIT does not begin with 'UNSCHEDULED' then ADLBC.TRTAN=ADLBC.TRT01AN</TranslatedText>
            </Description>
         </MethodDef>
         <MethodDef OID="MT.ADLBC.TRTP" Name="Algorithm to derive ADLBC.TRTP" Type="Computation">
            <Description>
               <TranslatedText>ADSL.TRT01P</TranslatedText>
            </Description>
         </MethodDef>
         <MethodDef OID="MT.ADLBC.TRTPN" Name="Algorithm to derive ADLBC.TRTPN" Type="Computation">
            <Description>
               <TranslatedText>ADSL.TRT01PN</TranslatedText>
            </Description>
         </MethodDef>
         <MethodDef OID="MT.ADSL.AGE" Name="Algorithm to derive ADSL.AGE" Type="Computation">
            <Description>
               <TranslatedText>DM.AGE</TranslatedText>
            </Description>
         </MethodDef>
         <MethodDef OID="MT.ADSL.AGEGR1" Name="Algorithm to derive ADSL.AGEGR1" Type="Computation">
            <Description>
               <TranslatedText>Character variable derived from ADSL.AGEGR1N</TranslatedText>
            </Description>
         </MethodDef>
         <MethodDef OID="MT.ADSL.AGEGR1N" Name="Algorithm to derive ADSL.AGEGR1N"
                    Type="Computation">
            <Description>
               <TranslatedText>AGEGR1 = 1 if AGE &lt;65. AGEGR1 = 2 if AGE 65-80. AGEGR1 = 3 if AGE &gt;80.</TranslatedText>
            </Description>
         </MethodDef>
         <MethodDef OID="MT.ADSL.AGEU" Name="Algorithm to derive ADSL.AGEU" Type="Computation">
            <Description>
               <TranslatedText>DM.AGEU</TranslatedText>
            </Description>
         </MethodDef>
         <MethodDef OID="MT.ADSL.ARM" Name="Algorithm to derive ADSL.ARM" Type="Computation">
            <Description>
               <TranslatedText>DM.ARM</TranslatedText>
            </Description>
         </MethodDef>
         <MethodDef OID="MT.ADSL.ACTARM" Name="Algorithm to derive ADSL.ACTARM" Type="Computation">
            <Description>
               <TranslatedText>DM.ACTARM</TranslatedText>
            </Description>
         </MethodDef>
         <MethodDef OID="MT.ADSL.AVGDD" Name="Algorithm to derive ADSL.AVGDD" Type="Computation">
            <Description>
               <TranslatedText>CUMDOSE/TRTDURD</TranslatedText>
            </Description>
         </MethodDef>
         <MethodDef OID="MT.ADSL.BMIBL" Name="Algorithm to derive ADSL.BMIBL" Type="Computation">
            <Description>
               <TranslatedText>WEIGHTBL / ((HEIGHTBL/100)**2)</TranslatedText>
            </Description>
         </MethodDef>
         <MethodDef OID="MT.ADSL.BMIBLGR1" Name="Algorithm to derive ADSL.BMIBLGR1"
                    Type="Computation">
            <Description>
               <TranslatedText>BMIBLGR1="&lt;25" if . &lt; BMIBL &lt;25.
BMIBLGR1="25-&lt;30" if 25 &lt;=BMIBL &lt;30.
BMIBLGR1="&gt;=30"if BMIBL &gt;=30.</TranslatedText>
            </Description>
         </MethodDef>
         <MethodDef OID="MT.ADSL.COMP16FL" Name="Algorithm to derive ADSL.COMP16FL"
                    Type="Computation">
            <Description>
               <TranslatedText>Y if subject has a SV.VISITNUM=10 and ENDDT&gt;=date of visit 10, N otherwise</TranslatedText>
            </Description>
         </MethodDef>
         <MethodDef OID="MT.ADSL.COMP24FL" Name="Algorithm to derive ADSL.COMP24FL"
                    Type="Computation">
            <Description>
               <TranslatedText>Y if subject has a SV.VISITNUM=12 and ENDDT&gt;= date of visit 12 , N otherwise</TranslatedText>
            </Description>
         </MethodDef>
         <MethodDef OID="MT.ADSL.COMP8FL" Name="Algorithm to derive ADSL.COMP8FL"
                    Type="Computation">
            <Description>
               <TranslatedText>Y if subject has a SV.VISITNUM=8 and ENDDT &gt;= date of visit 8, N otherwise</TranslatedText>
            </Description>
         </MethodDef>
         <MethodDef OID="MT.ADSL.CUMDOSE" Name="Algorithm to derive ADSL.CUMDOSE"
                    Type="Computation">
            <Description>
               <TranslatedText>For ARMN=0 or 1: CUMDOSE=TRT01PN*TRTDUR. --- For ARMN=2: CUMDOSE will be based on 54mg per day for the # of days subj was in 1st dosing interval (i.e., visit4date-TRTSTDT+1 if 1st interval completed, TRTEDT-TRTSTDT+1 if subj discontinued &lt;=visit 4 and &gt; visit 3), 81mg per day for the # of days subj was in 2nd dosing interval (i.e., visit12date-visit4date if 2nd interval completed, TRTEDT-visit4date if subj discontinued &lt;= visit 12 and &gt; visit 4), and 54mg per day for the # of days subj was in 3rd dosing interval (i.e., TRTEDT - visit12date if subj continued after visit 12).</TranslatedText>
            </Description>
         </MethodDef>
         <MethodDef OID="MT.ADSL.DCDECOD" Name="Algorithm to derive ADSL.DCDECOD"
                    Type="Computation">
            <Description>
               <TranslatedText>DS.DSDECOD where DSCAT='DISPOSITION EVENT'</TranslatedText>
            </Description>
         </MethodDef>
         <MethodDef OID="MT.ADSL.DCREASCD" Name="Algorithm to derive ADSL.DCREASCD"
                    Type="Computation">
            <Description>
               <TranslatedText>Grouping of DCDECOD values to support summarizing study completion status and reason for discontinuation</TranslatedText>
            </Description>
         </MethodDef>
         <MethodDef OID="MT.ADSL.DISCONFL" Name="Algorithm to derive ADSL.DISCONFL"
                    Type="Computation">
            <Description>
               <TranslatedText>Y if DCREASCD ^= 'Completed'. Null otherwise</TranslatedText>
            </Description>
         </MethodDef>
         <MethodDef OID="MT.ADSL.DISONSDT" Name="Algorithm to derive ADSL.DISONSDT"
                    Type="Computation">
            <Description>
               <TranslatedText>MH.MHSTDTC where MHCAT='PRIMARY DIAGNOSIS' converted to SAS date</TranslatedText>
            </Description>
         </MethodDef>
         <MethodDef OID="MT.ADSL.DSRAEFL" Name="Algorithm to derive ADSL.DSRAEFL"
                    Type="Computation">
            <Description>
               <TranslatedText>Y if DCREASCD='Adverse Event'. Null otherwise</TranslatedText>
            </Description>
         </MethodDef>
         <MethodDef OID="MT.ADSL.DTHFL" Name="Algorithm to derive ADSL.DTHFL" Type="Computation">
            <Description>
               <TranslatedText>DM.DTHFL</TranslatedText>
            </Description>
         </MethodDef>
         <MethodDef OID="MT.ADSL.DURDIS" Name="Algorithm to derive ADSL.DURDIS" Type="Computation">
            <Description>
               <TranslatedText>number of months between VISIT1DT and DISONSET</TranslatedText>
            </Description>
         </MethodDef>
         <MethodDef OID="MT.ADSL.DURDSGR1" Name="Algorithm to derive ADSL.DURDSGR1"
                    Type="Computation">
            <Description>
               <TranslatedText>grouping DURDIS values as &lt;12 and &gt;=12</TranslatedText>
            </Description>
         </MethodDef>
         <MethodDef OID="MT.ADSL.EDUCLVL" Name="Algorithm to derive ADSL.EDUCLVL"
                    Type="Computation">
            <Description>
               <TranslatedText>SC.SCSTRESN where SC.SCTESTCD=EDLEVEL</TranslatedText>
            </Description>
         </MethodDef>
         <MethodDef OID="MT.ADSL.EFFFL" Name="Algorithm to derive ADSL.EFFFL" Type="Computation">
            <Description>
               <TranslatedText>Y if SAFFL='Y AND subject has at least one record in QS for ADAS-Cog with VISITNUM&gt;3 AND at least one record in QS for CIBIC+ with VISITNUM&gt;3, N otherwise</TranslatedText>
            </Description>
         </MethodDef>
         <MethodDef OID="MT.ADSL.EOSSTT" Name="Algorithm to derive ADSL.EOSSTT" Type="Computation">
            <Description>
               <TranslatedText>COMPLETED if ADSL.DCDECOD='COMPLETED'. DISCONTINUED if ADSL.DCDECOD not equal to COMPLETED.</TranslatedText>
            </Description>
         </MethodDef>
         <MethodDef OID="MT.ADSL.ETHNIC" Name="Algorithm to derive ADSL.ETHNIC" Type="Computation">
            <Description>
               <TranslatedText>DM.ETHNIC</TranslatedText>
            </Description>
         </MethodDef>
         <MethodDef OID="MT.ADSL.HEIGHTBL" Name="Algorithm to derive ADSL.HEIGHTBL"
                    Type="Computation">
            <Description>
               <TranslatedText>VSSTRESN when VS.VSTESTCD='HEIGHT' and VS.VISITNUM=1</TranslatedText>
            </Description>
         </MethodDef>
         <MethodDef OID="MT.ADSL.ITTFL" Name="Algorithm to derive ADSL.ITTFL" Type="Computation">
            <Description>
               <TranslatedText>Y if ARMCD ne ' '. N otherwise</TranslatedText>
            </Description>
         </MethodDef>
         <MethodDef OID="MT.ADSL.MMSETOT" Name="Algorithm to derive ADSL.MMSETOT"
                    Type="Computation">
            <Description>
               <TranslatedText>sum of QS.QSORRES values for the subject when QSCAT = MINI-MENTAL STATE</TranslatedText>
            </Description>
         </MethodDef>
         <MethodDef OID="MT.ADSL.RACE" Name="Algorithm to derive ADSL.RACE" Type="Computation">
            <Description>
               <TranslatedText>DM.RACE</TranslatedText>
            </Description>
         </MethodDef>
         <MethodDef OID="MT.ADSL.RACEN" Name="Algorithm to derive ADSL.RACEN" Type="Computation">
            <Description>
               <TranslatedText>Numeric code for RACE</TranslatedText>
            </Description>
         </MethodDef>
         <MethodDef OID="MT.ADSL.RFENDT" Name="Algorithm to derive ADSL.RFENDT" Type="Computation">
            <Description>
               <TranslatedText>RFENDTC converted to SAS date</TranslatedText>
            </Description>
         </MethodDef>
         <MethodDef OID="MT.ADSL.RFENDTC" Name="Algorithm to derive ADSL.RFENDTC"
                    Type="Computation">
            <Description>
               <TranslatedText>DM.RFENDTC</TranslatedText>
            </Description>
         </MethodDef>
         <MethodDef OID="MT.ADSL.RFSTDTC" Name="Algorithm to derive ADSL.RFSTDTC"
                    Type="Computation">
            <Description>
               <TranslatedText>DM.RFSTDTC</TranslatedText>
            </Description>
         </MethodDef>
         <MethodDef OID="MT.ADSL.SAFFL" Name="Algorithm to derive ADSL.SAFFL" Type="Computation">
            <Description>
               <TranslatedText>Y if ITTFL='Y' and TRTSDT ne missing. N otherwise</TranslatedText>
            </Description>
         </MethodDef>
         <MethodDef OID="MT.ADSL.SEX" Name="Algorithm to derive ADSL.SEX" Type="Computation">
            <Description>
               <TranslatedText>DM.SEX</TranslatedText>
            </Description>
         </MethodDef>
         <MethodDef OID="MT.ADSL.SITEGR1" Name="Algorithm to derive ADSL.SITEGR1"
                    Type="Computation">
            <Description>
               <TranslatedText>refer to SAP, Section 7.1 - if not pooled then SITEGR1=SITEID. If pooled, SITEGR1 will be 900</TranslatedText>
            </Description>
         </MethodDef>
         <MethodDef OID="MT.ADSL.SITEID" Name="Algorithm to derive ADSL.SITEID" Type="Computation">
            <Description>
               <TranslatedText>DM.SITEID</TranslatedText>
            </Description>
         </MethodDef>
         <MethodDef OID="MT.ADSL.SUBJID" Name="Algorithm to derive ADSL.SUBJID" Type="Computation">
            <Description>
               <TranslatedText>DM.SUBJID</TranslatedText>
            </Description>
         </MethodDef>
         <MethodDef OID="MT.ADSL.TRT01A" Name="Algorithm to derive ADSL.TRT01A" Type="Computation">
            <Description>
               <TranslatedText>If a subject is randomized to the high dose group but does not actually receive any high dose treatment then TRT01A='Xanomeline Low Dose', else TRT01A=ADSL.TRT01P</TranslatedText>
            </Description>
         </MethodDef>
         <MethodDef OID="MT.ADSL.TRT01AN" Name="Algorithm to derive ADSL.TRT01AN"
                    Type="Computation">
            <Description>
               <TranslatedText>If a subject is randomized to the high dose group but does not actually receive any high dose treatment then TRT01AN=54, else TRT01AN=ADSL.TRT01PN</TranslatedText>
            </Description>
         </MethodDef>
         <MethodDef OID="MT.ADSL.TRT01P" Name="Algorithm to derive ADSL.TRT01P" Type="Computation">
            <Description>
               <TranslatedText>DM.ARM</TranslatedText>
            </Description>
         </MethodDef>
         <MethodDef OID="MT.ADSL.TRT01PN" Name="Algorithm to derive ADSL.TRT01PN"
                    Type="Computation">
            <Description>
               <TranslatedText>Numeric code for TRT01P which corresponds to the randomized dose</TranslatedText>
            </Description>
         </MethodDef>
         <MethodDef OID="MT.ADSL.TRTDUR" Name="Algorithm to derive ADSL.TRTDUR" Type="Computation">
            <Description>
               <TranslatedText>TRTEDT-TRTSDT+1</TranslatedText>
            </Description>
         </MethodDef>
         <MethodDef OID="MT.ADSL.TRTEDT" Name="Algorithm to derive ADSL.TRTEDT" Type="Computation">
            <Description>
               <TranslatedText>The date of final dose (from the CRF) is EX.EXENDTC on the subject's last EX record. If the date of final dose is missing for the subject and the subject discontinued after visit 3, use the date of discontinuation as the date of last dose. Convert the date to a SAS date.</TranslatedText>
            </Description>
         </MethodDef>
         <MethodDef OID="MT.ADSL.TRTSDT" Name="Algorithm to derive ADSL.TRTSDT" Type="Computation">
            <Description>
               <TranslatedText>SV.SVSTDTC when SV.VISITNUM=3, converted to SAS date</TranslatedText>
            </Description>
         </MethodDef>
         <MethodDef OID="MT.ADSL.VISIT1DT" Name="Algorithm to derive ADSL.VISIT1DT"
                    Type="Computation">
            <Description>
               <TranslatedText>SV.SVSTDTC when SV.VISITNUM=1, converted to SAS date</TranslatedText>
            </Description>
         </MethodDef>
         <MethodDef OID="MT.ADSL.VISNUMEN" Name="Algorithm to derive ADSL.VISNUMEN"
                    Type="Computation">
            <Description>
               <TranslatedText>if DS.VISITNUM=13 where DSTERM='PROTCOL COMPLETED' then VISNUMEN=12, otherwise VISNUMEN=DS.VISITNUM where DSTERM='PROTCOL COMPLETED'</TranslatedText>
            </Description>
         </MethodDef>
         <MethodDef OID="MT.ADSL.WEIGHTBL" Name="Algorithm to derive ADSL.WEIGHTBL"
                    Type="Computation">
            <Description>
               <TranslatedText>VSSTRESN when VS.VSTESTCD='WEIGHT' and VS.VISITNUM=3</TranslatedText>
            </Description>
         </MethodDef>
         <def:leaf ID="LF.Suppdoc" xlink:href="adrg.pdf">
            <def:title>Analysis Data Reviewer’s Guide</def:title>
         </def:leaf>
      </MetaDataVersion>
   </Study>
</ODM>