{"creationDateTime":"2024-02-14T11:46:08","datasetJSONVersion":"1.0.0","fileOID":"CDISCPILOT01.ae","referenceData":{"studyOID":"CDISCPILOT01","metaDataVersionOID":"MDV.CDISCPILOT01","itemGroupData":{"IG.AE":{"records":1272,"name":"AE","label":"Adverse Events (AE)","items":[{"OID":"ITEMGROUPDATASEQ","name":"ITEMGROUPDATASEQ","label":"Record Identifier","type":"integer"},{"OID":"IT.AE.STUDYID","name":"STUDYID","label":"Study Identifier","type":"string","length":12,"displayFormat":"."},{"OID":"IT.AE.SITEID","name":"SITEID","label":"Study Site Identifier","type":"string","length":3,"displayFormat":"."},{"OID":"IT.AE.SUBJID","name":"SUBJID","label":"Subject Identifier for the Study","type":"string","length":4,"displayFormat":"."},{"OID":"IT.AE.AEYN","name":"AEYN","label":"Any Adverse Event","type":"string","length":1,"displayFormat":"."},{"OID":"IT.AE.AESPID","name":"AESPID","label":"Adverse Event Sponsor-Defined Identifier","type":"string","length":3,"displayFormat":"."},{"OID":"IT.AE.AETERM","name":"AETERM","label":"Adverse Event Reported Term","type":"string","length":200,"displayFormat":"."},{"OID":"IT.AE.AELLT","name":"AELLT","label":"Adverse Event Lowest Level Term","type":"string","length":100,"displayFormat":"."},{"OID":"IT.AE.AELLTCD","name":"AELLTCD","label":"Adverse Event Lowest Level Term Code","type":"float","length":8,"displayFormat":"."},{"OID":"IT.AE.AEDECOD","name":"AEDECOD","label":"Adverse Event Dictionary-Derived/Standar","type":"string","length":200,"displayFormat":"."},{"OID":"IT.AE.AEPTCD","name":"AEPTCD","label":"Adverse Event Preferred Term Code","type":"float","length":8,"displayFormat":"."},{"OID":"IT.AE.AEHLT","name":"AEHLT","label":"Adverse Event High Level Term","type":"string","length":100,"displayFormat":"."},{"OID":"IT.AE.AEHLTCD","name":"AEHLTCD","label":"Adverse Event High Level Term Code","type":"float","length":8,"displayFormat":"."},{"OID":"IT.AE.AEHLGT","name":"AEHLGT","label":"Adverse Event High Level Group Term","type":"string","length":100,"displayFormat":"."},{"OID":"IT.AE.AEHLGTCD","name":"AEHLGTCD","label":"Adverse Event High Level Group Term Code","type":"float","length":8,"displayFormat":"."},{"OID":"IT.AE.AESOC","name":"AESOC","label":"Adverse Event Primary System Organ Class","type":"string","length":100,"displayFormat":"."},{"OID":"IT.AE.AESOCCD","name":"AESOCCD","label":"Adverse Event Primary System Organ Class","type":"float","length":8,"displayFormat":"."},{"OID":"IT.AE.AESEV","name":"AESEV","label":"Adverse Event Severity/Intensity","type":"float","length":8,"displayFormat":"."},{"OID":"IT.AE.AESER","name":"AESER","label":"Adverse Event Serious Event","type":"string","length":2,"displayFormat":"."},{"OID":"IT.AE.AEACN","name":"AEACN","label":"Action Taken with Study Treatment","type":"string","length":30,"displayFormat":"."},{"OID":"IT.AE.AEREL","name":"AEREL","label":"Adverse Event Causality","type":"float","length":8,"displayFormat":"."},{"OID":"IT.AE.AEOUT","name":"AEOUT","label":"Outcome of Adverse Event","type":"string","length":200,"displayFormat":"."},{"OID":"IT.AE.AESCAN","name":"AESCAN","label":"Involves Cancer","type":"string","length":1,"displayFormat":"."},{"OID":"IT.AE.AESCONG","name":"AESCONG","label":"Congenital Anomaly or Birth Defect","type":"string","length":1,"displayFormat":"."},{"OID":"IT.AE.AESDISAB","name":"AESDISAB","label":"Disability or Permanent Damage","type":"string","length":1,"displayFormat":"."},{"OID":"IT.AE.AESDTH","name":"AESDTH","label":"Results in Death","type":"string","length":1,"displayFormat":"."},{"OID":"IT.AE.DTHDAT","name":"DTHDAT","label":"Date of Death","type":"string","length":11,"displayFormat":"."},{"OID":"IT.AE.AESHOSP","name":"AESHOSP","label":"Initial or Prolonged Hospitalization","type":"string","length":1,"displayFormat":"."},{"OID":"IT.AE.AESLIFE","name":"AESLIFE","label":"Is Life Threatening","type":"string","length":1,"displayFormat":"."},{"OID":"IT.AE.AESOD","name":"AESOD","label":"Occurred with Overdose","type":"string","length":1,"displayFormat":"."},{"OID":"IT.AE.AEDAT","name":"AEDAT","label":"Adverse Event Date of Collection","type":"string","length":11,"displayFormat":"."},{"OID":"IT.AE.AESTDAT","name":"AESTDAT","label":"Adverse Event Start Date","type":"string","length":11,"displayFormat":"."},{"OID":"IT.AE.AEENDAT","name":"AEENDAT","label":"Adverse Event End Date","type":"string","length":11,"displayFormat":"."},{"OID":"IT.AE.AEONGO","name":"AEONGO","label":"Ongoing Adverse Event","type":"string","length":1,"displayFormat":"."}],"itemData":[[1,"CDISCPILOT01","701","1015","Y","E06","DIARRHOEA","DIARRHEA",null,"DIARRHOEA",null,"HLT_0148",null,"HLGT_0588",null,"GASTROINTESTINAL DISORDERS",null,1,"No","",2,"RECOVERED/RESOLVED","N","N","N","N","","N","N","N","16-JAN-2014","09-JAN-2014","11-JAN-2014","N"],[2,"CDISCPILOT01","701","1015","Y","E07","APPLICATION SITE ERYTHEMA","APPLICATION SITE REDNESS",null,"APPLICATION SITE ERYTHEMA",null,"HLT_0617",null,"HLGT_0152",null,"GENERAL DISORDERS AND ADMINISTRATION SITE CONDITIONS",null,1,"No","",4,"NOT RECOVERED/NOT RESOLVED","N","N","N","N","","N","N","N","16-JAN-2014","03-JAN-2014","","Y"],[3,"CDISCPILOT01","701","1015","Y","E08","APPLICATION SITE PRURITUS","APPLICATION SITE ITCHING",null,"APPLICATION SITE PRURITUS",null,"HLT_0317",null,"HLGT_0338",null,"GENERAL DISORDERS AND ADMINISTRATION SITE CONDITIONS",null,1,"No","",4,"NOT RECOVERED/NOT RESOLVED","N","N","N","N","","N","N","N","16-JAN-2014","03-JAN-2014","","Y"],[4,"CDISCPILOT01","701","1023","Y","E08","ERYTHEMA","ERYTHEMA",null,"ERYTHEMA",null,"HLT_0284",null,"HLGT_0192",null,"SKIN AND SUBCUTANEOUS TISSUE DISORDERS",null,1,"No","",3,"NOT RECOVERED/NOT RESOLVED","N","N","N","N","","N","N","N","27-AUG-2012","07-AUG-2012","30-AUG-2012","N"],[5,"CDISCPILOT01","701","1023","Y","E08","ERYTHEMA","ERYTHEMA",null,"ERYTHEMA",null,"HLT_0284",null,"HLGT_0192",null,"SKIN AND SUBCUTANEOUS TISSUE DISORDERS",null,1,"No","",3,"RECOVERED/RESOLVED","N","N","N","N","","N","N","N","02-SEP-2012","07-AUG-2012","30-AUG-2012","N"],[6,"CDISCPILOT01","701","1023","Y","E09","ERYTHEMA","LOCALIZED ERYTHEMA",null,"ERYTHEMA",null,"HLT_0284",null,"HLGT_0192",null,"SKIN AND SUBCUTANEOUS TISSUE DISORDERS",null,2,"No","",4,"NOT RECOVERED/NOT RESOLVED","N","N","N","N","","N","N","N","27-AUG-2012","07-AUG-2012","","Y"],[7,"CDISCPILOT01","701","1023","Y","E10","ATRIOVENTRICULAR BLOCK SECOND DEGREE","AV BLOCK SECOND DEGREE",null,"ATRIOVENTRICULAR BLOCK SECOND DEGREE",null,"HLT_0415",null,"HLGT_0086",null,"CARDIAC DISORDERS",null,1,"No","",3,"NOT RECOVERED/NOT RESOLVED","N","N","N","N","","N","N","N","27-AUG-2012","26-AUG-2012","","Y"],[8,"CDISCPILOT01","701","1028","Y","E04","APPLICATION SITE ERYTHEMA","APPLICATION SITE ERYTHEMA",null,"APPLICATION SITE ERYTHEMA",null,"HLT_0617",null,"HLGT_0152",null,"GENERAL DISORDERS AND ADMINISTRATION SITE CONDITIONS",null,1,"No","",3,"NOT RECOVERED/NOT RESOLVED","N","N","N","N","","N","N","N","01-AUG-2013","21-JUL-2013","","Y"],[9,"CDISCPILOT01","701","1028","Y","E05","APPLICATION SITE PRURITUS","APPLICATION SITE ITCHING",null,"APPLICATION SITE PRURITUS",null,"HLT_0317",null,"HLGT_0338",null,"GENERAL DISORDERS AND ADMINISTRATION SITE CONDITIONS",null,1,"No","",4,"NOT RECOVERED/NOT RESOLVED","N","N","N","N","","N","N","N","14-AUG-2013","08-AUG-2013","","Y"],[10,"CDISCPILOT01","701","1033","N","","","",null,"",null,"",null,"",null,"",null,null,"","",null,"","","","","","","","","","","","",""],[11,"CDISCPILOT01","701","1034","Y","E07","FATIGUE","FATIGUE",null,"FATIGUE",null,"HLT_0043",null,"HLGT_0181",null,"GENERAL DISORDERS AND ADMINISTRATION SITE CONDITIONS",null,1,"No","",3,"NOT RECOVERED/NOT RESOLVED","N","N","N","N","","N","N","N","18-NOV-2014","02-NOV-2014","","Y"],[12,"CDISCPILOT01","701","1034","Y","E08","APPLICATION SITE PRURITUS","APPLICATION SITE ITCHING",null,"APPLICATION SITE PRURITUS",null,"HLT_0317",null,"HLGT_0338",null,"GENERAL DISORDERS AND ADMINISTRATION SITE CONDITIONS",null,1,"No","",4,"NOT RECOVERED/NOT RESOLVED","N","N","N","N","","N","N","N","25-SEP-2014","27-AUG-2014","","Y"],[13,"CDISCPILOT01","701","1047","Y","E06","HIATUS HERNIA","HERNIA HIATAL",null,"HIATUS HERNIA",null,"HLT_0159",null,"HLGT_0109",null,"GASTROINTESTINAL DISORDERS",null,2,"No","",1,"NOT RECOVERED/NOT RESOLVED","N","N","N","N","","N","N","N","12-FEB-2013","12-FEB-2013","12-FEB-2013","N"],[14,"CDISCPILOT01","701","1047","Y","E06","HIATUS HERNIA","HERNIA HIATAL",null,"HIATUS HERNIA",null,"HLT_0159",null,"HLGT_0109",null,"GASTROINTESTINAL DISORDERS",null,2,"No","",1,"RECOVERED/RESOLVED","N","N","N","N","","N","N","N","25-FEB-2013","12-FEB-2013","12-FEB-2013","N"],[15,"CDISCPILOT01","701","1047","Y","E08","UPPER RESPIRATORY TRACT INFECTION","UPPER RESPIRATORY INFECTION",null,"UPPER RESPIRATORY TRACT INFECTION",null,"HLT_0520",null,"HLGT_0489",null,"INFECTIONS AND INFESTATIONS",null,1,"No","",1,"NOT RECOVERED/NOT RESOLVED","N","N","N","N","","N","N","N","10-MAR-2013","06-MAR-2013","","Y"],[16,"CDISCPILOT01","701","1047","Y","E09","BUNDLE BRANCH BLOCK LEFT","LEFT BUNDLE BRANCH BLOCK",null,"BUNDLE BRANCH BLOCK LEFT",null,"HLT_0281",null,"HLGT_0721",null,"CARDIAC DISORDERS",null,1,"No","",1,"NOT RECOVERED/NOT RESOLVED","N","N","N","N","","N","N","N","10-MAR-2013","10-MAR-2013","","Y"],[17,"CDISCPILOT01","701","1057","N","","","",null,"",null,"",null,"",null,"",null,null,"","",null,"","","","","","","","","","","","",""],[18,"CDISCPILOT01","701","1097","Y","E04","ERYTHEMA","ERYTHEMA",null,"ERYTHEMA",null,"HLT_0284",null,"HLGT_0192",null,"SKIN AND SUBCUTANEOUS TISSUE DISORDERS",null,1,"No","",3,"NOT RECOVERED/NOT RESOLVED","N","N","N","N","","N","N","N","15-JAN-2014","03-JAN-2014","","Y"],[19,"CDISCPILOT01","701","1097","Y","E05","PRURITUS GENERALISED","GENERALIZED PRURITUS",null,"PRURITUS GENERALISED",null,"HLT_0123",null,"HLGT_0689",null,"SKIN AND SUBCUTANEOUS TISSUE DISORDERS",null,2,"No","",3,"RECOVERED/RESOLVED","N","N","N","N","","N","N","N","26-FEB-2014","20-FEB-2014","20-FEB-2014","N"],[20,"CDISCPILOT01","701","1097","Y","E06","APPLICATION SITE PRURITUS","APPLICATION SITE ITCHING",null,"APPLICATION SITE PRURITUS",null,"HLT_0317",null,"HLGT_0338",null,"GENERAL DISORDERS AND ADMINISTRATION SITE CONDITIONS",null,1,"No","",3,"NOT RECOVERED/NOT RESOLVED","N","N","N","N","","N","N","N","26-FEB-2014","21-FEB-2014","","Y"],[21,"CDISCPILOT01","701","1097","Y","E06","APPLICATION SITE PRURITUS","APPLICATION SITE ITCHING",null,"APPLICATION SITE PRURITUS",null,"HLT_0317",null,"HLGT_0338",null,"GENERAL DISORDERS AND ADMINISTRATION SITE CONDITIONS",null,2,"No","",3,"NOT RECOVERED/NOT RESOLVED","N","N","N","N","","N","N","N","21-MAY-2014","21-FEB-2014","","Y"],[22,"CDISCPILOT01","701","1097","Y","E07","APPLICATION SITE VESICLES","APPLICATION SITE BLISTER",null,"APPLICATION SITE VESICLES",null,"HLT_0180",null,"HLGT_0576",null,"GENERAL DISORDERS AND ADMINISTRATION SITE CONDITIONS",null,1,"No","",4,"RECOVERED/RESOLVED","N","N","N","N","","N","N","N","26-FEB-2014","20-FEB-2014","22-FEB-2014","N"],[23,"CDISCPILOT01","701","1097","Y","E08","PRURITUS GENERALISED","GENERALIZED PRURITUS",null,"PRURITUS GENERALISED",null,"HLT_0123",null,"HLGT_0689",null,"SKIN AND SUBCUTANEOUS TISSUE DISORDERS",null,2,"No","",3,"RECOVERED/RESOLVED","N","N","N","N","","N","N","N","26-MAR-2014","21-MAR-2014","21-MAR-2014","N"],[24,"CDISCPILOT01","701","1097","Y","E09","PRURITUS GENERALISED","GENERALIZED PRURITUS",null,"PRURITUS GENERALISED",null,"HLT_0123",null,"HLGT_0689",null,"SKIN AND SUBCUTANEOUS TISSUE DISORDERS",null,2,"No","",3,"RECOVERED/RESOLVED","N","N","N","N","","N","N","N","23-APR-2014","19-APR-2014","20-APR-2014","N"],[25,"CDISCPILOT01","701","1097","Y","E10","PHARYNGOLARYNGEAL PAIN","SORE THROAT",null,"PHARYNGOLARYNGEAL PAIN",null,"HLT_0130",null,"HLGT_0402",null,"RESPIRATORY, THORACIC AND MEDIASTINAL DISORDERS",null,1,"No","",1,"RECOVERED/RESOLVED","N","N","N","N","","N","N","N","23-APR-2014","19-APR-2014","22-APR-2014","N"],[26,"CDISCPILOT01","701","1097","Y","E11","NASAL CONGESTION","NASAL CONGESTION",null,"NASAL CONGESTION",null,"HLT_0118",null,"HLGT_0549",null,"RESPIRATORY, THORACIC AND MEDIASTINAL DISORDERS",null,1,"No","",1,"RECOVERED/RESOLVED","N","N","N","N","","N","N","N","23-APR-2014","19-APR-2014","22-APR-2014","N"],[27,"CDISCPILOT01","701","1097","Y","E12","PRURITUS GENERALISED","GENERALIZED PRURITUS",null,"PRURITUS GENERALISED",null,"HLT_0123",null,"HLGT_0689",null,"SKIN AND SUBCUTANEOUS TISSUE DISORDERS",null,2,"No","",3,"RECOVERED/RESOLVED","N","N","N","N","","N","N","N","23-APR-2014","31-MAR-2014","31-MAR-2014","N"],[28,"CDISCPILOT01","701","1111","Y","E06","LOCALISED INFECTION","LOCALIZED INFECTION",null,"LOCALISED INFECTION",null,"HLT_0435",null,"HLGT_0557",null,"INFECTIONS AND INFESTATIONS",null,2,"No","",1,"NOT RECOVERED/NOT RESOLVED","N","N","N","N","","N","N","N","17-SEP-2012","08-JUL-2012","","Y"],[29,"CDISCPILOT01","701","1111","Y","E14","ERYTHEMA","ERYTHEMA",null,"ERYTHEMA",null,"HLT_0284",null,"HLGT_0192",null,"SKIN AND SUBCUTANEOUS TISSUE DISORDERS",null,1,"No","",1,"NOT RECOVERED/NOT RESOLVED","N","N","N","N","","N","N","N","05-SEP-2012","02-SEP-2012","07-SEP-2012","N"],[30,"CDISCPILOT01","701","1111","Y","E14","ERYTHEMA","ERYTHEMA",null,"ERYTHEMA",null,"HLT_0284",null,"HLGT_0192",null,"SKIN AND SUBCUTANEOUS TISSUE DISORDERS",null,1,"No","",1,"RECOVERED/RESOLVED","N","N","N","N","","N","N","N","17-SEP-2012","02-SEP-2012","07-SEP-2012","N"],[31,"CDISCPILOT01","701","1111","Y","E15","PRURITUS","ITCHING",null,"PRURITUS",null,"HLT_0778",null,"HLGT_0695",null,"SKIN AND SUBCUTANEOUS TISSUE DISORDERS",null,1,"No","",1,"NOT RECOVERED/NOT RESOLVED","N","N","N","N","","N","N","N","05-SEP-2012","02-SEP-2012","07-SEP-2012","N"],[32,"CDISCPILOT01","701","1111","Y","E15","PRURITUS","ITCHING",null,"PRURITUS",null,"HLT_0778",null,"HLGT_0695",null,"SKIN AND SUBCUTANEOUS TISSUE DISORDERS",null,1,"No","",1,"RECOVERED/RESOLVED","N","N","N","N","","N","N","N","17-SEP-2012","02-SEP-2012","07-SEP-2012","N"],[33,"CDISCPILOT01","701","1111","Y","E16","ARTHRALGIA","GENERALIZED JOINT PAIN",null,"ARTHRALGIA",null,"HLT_0375",null,"HLGT_0610",null,"MUSCULOSKELETAL AND CONNECTIVE TISSUE DISORDERS",null,2,"No","",1,"NOT RECOVERED/NOT RESOLVED","N","N","N","N","","N","N","N","17-SEP-2012","13-SEP-2012","","Y"],[34,"CDISCPILOT01","701","1111","Y","E17","CELLULITIS","CELLULITIS OF LEG",null,"CELLULITIS",null,"HLT_0613",null,"HLGT_0066",null,"INFECTIONS AND INFESTATIONS",null,2,"No","",1,"NOT RECOVERED/NOT RESOLVED","N","N","N","N","","N","N","N","17-SEP-2012","13-SEP-2012","","Y"],[35,"CDISCPILOT01","701","1111","Y","E18","MICTURITION URGENCY","URINARY URGENCY",null,"MICTURITION URGENCY",null,"HLT_0294",null,"HLGT_0483",null,"RENAL AND URINARY DISORDERS",null,1,"No","",1,"NOT RECOVERED/NOT RESOLVED","N","N","N","N","","N","N","N","17-SEP-2012","07-SEP-2012","","Y"],[36,"CDISCPILOT01","701","1115","Y","E09","APPLICATION SITE ERYTHEMA","APPLICATION SITE REDNESS",null,"APPLICATION SITE ERYTHEMA",null,"HLT_0617",null,"HLGT_0152",null,"GENERAL DISORDERS AND ADMINISTRATION SITE CONDITIONS",null,1,"No","",4,"NOT RECOVERED/NOT RESOLVED","N","N","N","N","","N","N","N","13-DEC-2012","02-DEC-2012","","Y"],[37,"CDISCPILOT01","701","1115","Y","E09","APPLICATION SITE ERYTHEMA","APPLICATION SITE REDNESS",null,"APPLICATION SITE ERYTHEMA",null,"HLT_0617",null,"HLGT_0152",null,"GENERAL DISORDERS AND ADMINISTRATION SITE CONDITIONS",null,2,"No","",4,"NOT RECOVERED/NOT RESOLVED","N","N","N","N","","N","N","N","23-JAN-2013","02-DEC-2012","","Y"],[38,"CDISCPILOT01","701","1115","Y","E10","APPLICATION SITE IRRITATION","APPLICATION SITE BURNING",null,"APPLICATION SITE IRRITATION",null,"HLT_0061",null,"HLGT_0346",null,"GENERAL DISORDERS AND ADMINISTRATION SITE CONDITIONS",null,1,"No","",3,"NOT RECOVERED/NOT RESOLVED","N","N","N","N","","N","N","N","26-DEC-2012","26-DEC-2012","26-DEC-2012","N"],[39,"CDISCPILOT01","701","1115","Y","E10","APPLICATION SITE IRRITATION","APPLICATION SITE BURNING",null,"APPLICATION SITE IRRITATION",null,"HLT_0061",null,"HLGT_0346",null,"GENERAL DISORDERS AND ADMINISTRATION SITE CONDITIONS",null,1,"No","",3,"RECOVERED/RESOLVED","N","N","N","N","","N","N","N","28-DEC-2012","26-DEC-2012","26-DEC-2012","N"],[40,"CDISCPILOT01","701","1115","Y","E11","APPLICATION SITE PRURITUS","APPLICATION SITE ITCHING",null,"APPLICATION SITE PRURITUS",null,"HLT_0317",null,"HLGT_0338",null,"GENERAL DISORDERS AND ADMINISTRATION SITE CONDITIONS",null,1,"No","",4,"NOT RECOVERED/NOT RESOLVED","N","N","N","N","","N","N","N","13-DEC-2012","02-DEC-2012","","Y"],[41,"CDISCPILOT01","701","1115","Y","E11","APPLICATION SITE PRURITUS","APPLICATION SITE ITCHING",null,"APPLICATION SITE PRURITUS",null,"HLT_0317",null,"HLGT_0338",null,"GENERAL DISORDERS AND ADMINISTRATION SITE CONDITIONS",null,2,"No","",4,"NOT RECOVERED/NOT RESOLVED","N","N","N","N","","N","N","N","23-JAN-2013","02-DEC-2012","","Y"],[42,"CDISCPILOT01","701","1115","Y","E12","APPLICATION SITE IRRITATION","APPLICATION SITE BURNING",null,"APPLICATION SITE IRRITATION",null,"HLT_0061",null,"HLGT_0346",null,"GENERAL DISORDERS AND ADMINISTRATION SITE CONDITIONS",null,2,"No","",4,"NOT RECOVERED/NOT RESOLVED","N","N","N","N","","N","N","N","23-JAN-2013","19-JAN-2013","","Y"],[43,"CDISCPILOT01","701","1115","Y","E13","FATIGUE","FATIGUE",null,"FATIGUE",null,"HLT_0043",null,"HLGT_0181",null,"GENERAL DISORDERS AND ADMINISTRATION SITE CONDITIONS",null,2,"No","",2,"NOT RECOVERED/NOT RESOLVED","N","N","N","N","","N","N","N","23-JAN-2013","14-JAN-2013","","Y"],[44,"CDISCPILOT01","701","1115","Y","E14","APPLICATION SITE DERMATITIS","APPLICATION SITE RASH",null,"APPLICATION SITE DERMATITIS",null,"HLT_0343",null,"HLGT_0241",null,"GENERAL DISORDERS AND ADMINISTRATION SITE CONDITIONS",null,2,"No","",4,"NOT RECOVERED/NOT RESOLVED","N","N","N","N","","N","N","N","23-JAN-2013","19-JAN-2013","","Y"],[45,"CDISCPILOT01","701","1118","Y","E06","COUGH","COUGH",null,"COUGH",null,"HLT_0701",null,"HLGT_0280",null,"RESPIRATORY, THORACIC AND MEDIASTINAL DISORDERS",null,1,"No","",1,"NOT RECOVERED/NOT RESOLVED","N","N","N","N","","N","N","N","10-MAR-2014","2003","","Y"],[46,"CDISCPILOT01","701","1130","Y","E06","URINARY TRACT INFECTION","URINARY TRACT INFECTION",null,"URINARY TRACT INFECTION",null,"HLT_0161",null,"HLGT_0093",null,"INFECTIONS AND INFESTATIONS",null,1,"No","",1,"NOT RECOVERED/NOT RESOLVED","N","N","N","N","","N","N","N","15-MAR-2014","09-MAR-2014","16-MAR-2014","N"],[47,"CDISCPILOT01","701","1130","Y","E06","URINARY TRACT INFECTION","URINARY TRACT INFECTION",null,"URINARY TRACT INFECTION",null,"HLT_0161",null,"HLGT_0093",null,"INFECTIONS AND INFESTATIONS",null,1,"No","",1,"RECOVERED/RESOLVED","N","N","N","N","","N","N","N","17-MAR-2014","09-MAR-2014","16-MAR-2014","N"],[48,"CDISCPILOT01","701","1130","Y","E07","PYREXIA","FEVER",null,"PYREXIA",null,"HLT_0310",null,"HLGT_0652",null,"GENERAL DISORDERS AND ADMINISTRATION SITE CONDITIONS",null,1,"No","",1,"RECOVERED/RESOLVED","N","N","N","N","","N","N","N","15-MAR-2014","09-MAR-2014","09-MAR-2014","N"],[49,"CDISCPILOT01","701","1130","Y","E08","EYE SWELLING","EYES SWOLLEN",null,"EYE SWELLING",null,"HLT_0008",null,"HLGT_0466",null,"EYE DISORDERS",null,1,"No","",1,"RECOVERED/RESOLVED","N","N","N","N","","N","N","N","16-MAY-2014","09-MAY-2014","09-MAY-2014","N"],[50,"CDISCPILOT01","701","1130","Y","E09","EYE ALLERGY","EYE ALLERGY",null,"EYE ALLERGY",null,"HLT_0256",null,"HLGT_0071",null,"EYE DISORDERS",null,1,"No","",1,"RECOVERED/RESOLVED","N","N","N","N","","N","N","N","16-MAY-2014","09-MAY-2014","09-MAY-2014","N"],[51,"CDISCPILOT01","701","1130","Y","E10","EYE PRURITUS","EYE ITCHING",null,"EYE PRURITUS",null,"HLT_0523",null,"HLGT_0240",null,"EYE DISORDERS",null,1,"No","",2,"NOT RECOVERED/NOT RESOLVED","N","N","N","N","","N","N","N","07-JUN-2014","22-MAY-2014","","Y"],[52,"CDISCPILOT01","701","1130","Y","E11","PRURITUS","ITCHING BOTH HANDS",null,"PRURITUS",null,"HLT_0778",null,"HLGT_0695",null,"SKIN AND SUBCUTANEOUS TISSUE DISORDERS",null,1,"No","",2,"NOT RECOVERED/NOT RESOLVED","N","N","N","N","","N","N","N","07-JUN-2014","22-MAY-2014","","Y"],[53,"CDISCPILOT01","701","1130","Y","E12","NASAL CONGESTION","NASAL CONGESTION",null,"NASAL CONGESTION",null,"HLT_0118",null,"HLGT_0549",null,"RESPIRATORY, THORACIC AND MEDIASTINAL DISORDERS",null,1,"No","",2,"NOT RECOVERED/NOT RESOLVED","N","N","N","N","","N","N","N","07-JUN-2014","22-MAY-2014","","Y"],[54,"CDISCPILOT01","701","1133","Y","E04","APPLICATION SITE ERYTHEMA","APPLICATION SITE REDNESS",null,"APPLICATION SITE ERYTHEMA",null,"HLT_0617",null,"HLGT_0152",null,"GENERAL DISORDERS AND ADMINISTRATION SITE CONDITIONS",null,1,"No","",4,"NOT RECOVERED/NOT RESOLVED","N","N","N","N","","N","N","N","22-JAN-2013","27-DEC-2012","","Y"],[55,"CDISCPILOT01","701","1133","Y","E04","APPLICATION SITE ERYTHEMA","APPLICATION SITE REDNESS",null,"APPLICATION SITE ERYTHEMA",null,"HLT_0617",null,"HLGT_0152",null,"GENERAL DISORDERS AND ADMINISTRATION SITE CONDITIONS",null,2,"No","",4,"NOT RECOVERED/NOT RESOLVED","N","N","N","N","","N","N","N","18-FEB-2013","27-DEC-2012","","Y"],[56,"CDISCPILOT01","701","1133","Y","E05","APPLICATION SITE PRURITUS","APPLICATION SITE ITCHING",null,"APPLICATION SITE PRURITUS",null,"HLT_0317",null,"HLGT_0338",null,"GENERAL DISORDERS AND ADMINISTRATION SITE CONDITIONS",null,1,"No","",4,"NOT RECOVERED/NOT RESOLVED","N","N","N","N","","N","N","N","22-JAN-2013","27-DEC-2012","","Y"],[57,"CDISCPILOT01","701","1133","Y","E05","APPLICATION SITE PRURITUS","APPLICATION SITE ITCHING",null,"APPLICATION SITE PRURITUS",null,"HLT_0317",null,"HLGT_0338",null,"GENERAL DISORDERS AND ADMINISTRATION SITE CONDITIONS",null,2,"No","",4,"NOT RECOVERED/NOT RESOLVED","N","N","N","N","","N","N","N","18-FEB-2013","27-DEC-2012","","Y"],[58,"CDISCPILOT01","701","1145","N","","","",null,"",null,"",null,"",null,"",null,null,"","",null,"","","","","","","","","","","","",""],[59,"CDISCPILOT01","701","1146","Y","E09","RASH","RASH",null,"RASH",null,"HLT_0762",null,"HLGT_0198",null,"SKIN AND SUBCUTANEOUS TISSUE DISORDERS",null,1,"No","",1,"NOT RECOVERED/NOT RESOLVED","N","N","N","N","","N","N","N","18-MAY-2013","16-MAY-2013","02-JUN-2013","N"],[60,"CDISCPILOT01","701","1146","Y","E09","RASH","RASH",null,"RASH",null,"HLT_0762",null,"HLGT_0198",null,"SKIN AND SUBCUTANEOUS TISSUE DISORDERS",null,1,"No","",1,"RECOVERED/RESOLVED","N","N","N","N","","N","N","N","03-JUN-2013","16-MAY-2013","02-JUN-2013","N"],[61,"CDISCPILOT01","701","1146","Y","E10","APPLICATION SITE IRRITATION","APPLICATION SITE IRRITATION",null,"APPLICATION SITE IRRITATION",null,"HLT_0061",null,"HLGT_0346",null,"GENERAL DISORDERS AND ADMINISTRATION SITE CONDITIONS",null,1,"No","",4,"RECOVERED/RESOLVED","N","N","N","N","","N","N","N","03-JUN-2013","01-JUN-2013","02-JUN-2013","N"],[62,"CDISCPILOT01","701","1146","Y","E11","FATIGUE","FATIGUE",null,"FATIGUE",null,"HLT_0043",null,"HLGT_0181",null,"GENERAL DISORDERS AND ADMINISTRATION SITE CONDITIONS",null,1,"No","",3,"NOT RECOVERED/NOT RESOLVED","N","N","N","N","","N","N","N","03-JUN-2013","03-JUN-2013","","Y"],[63,"CDISCPILOT01","701","1146","Y","E12","APPLICATION SITE ERYTHEMA","APPLICATION SITE ERYTHEMA",null,"APPLICATION SITE ERYTHEMA",null,"HLT_0617",null,"HLGT_0152",null,"GENERAL DISORDERS AND ADMINISTRATION SITE CONDITIONS",null,1,"No","",4,"NOT RECOVERED/NOT RESOLVED","N","N","N","N","","N","N","N","16-JUN-2013","10-JUN-2013","","Y"],[64,"CDISCPILOT01","701","1146","Y","E12","APPLICATION SITE ERYTHEMA","APPLICATION SITE ERYTHEMA",null,"APPLICATION SITE ERYTHEMA",null,"HLT_0617",null,"HLGT_0152",null,"GENERAL DISORDERS AND ADMINISTRATION SITE CONDITIONS",null,2,"No","",4,"NOT RECOVERED/NOT RESOLVED","N","N","N","N","","N","N","N","30-JUN-2013","10-JUN-2013","","Y"],[65,"CDISCPILOT01","701","1146","Y","E13","APPLICATION SITE PRURITUS","APPLICATION SITE ITCHING",null,"APPLICATION SITE PRURITUS",null,"HLT_0317",null,"HLGT_0338",null,"GENERAL DISORDERS AND ADMINISTRATION SITE CONDITIONS",null,1,"No","",4,"NOT RECOVERED/NOT RESOLVED","N","N","N","N","","N","N","N","16-JUN-2013","10-JUN-2013","","Y"],[66,"CDISCPILOT01","701","1146","Y","E13","APPLICATION SITE PRURITUS","APPLICATION SITE ITCHING",null,"APPLICATION SITE PRURITUS",null,"HLT_0317",null,"HLGT_0338",null,"GENERAL DISORDERS AND ADMINISTRATION SITE CONDITIONS",null,2,"No","",4,"NOT RECOVERED/NOT RESOLVED","N","N","N","N","","N","N","N","30-JUN-2013","10-JUN-2013","","Y"],[67,"CDISCPILOT01","701","1146","Y","E14","APPLICATION SITE PAIN","APPLICATION SITE PAIN",null,"APPLICATION SITE PAIN",null,"HLT_0342",null,"HLGT_0085",null,"GENERAL DISORDERS AND ADMINISTRATION SITE CONDITIONS",null,2,"No","",4,"NOT RECOVERED/NOT RESOLVED","N","N","N","N","","N","N","N","30-JUN-2013","22-JUN-2013","","Y"],[68,"CDISCPILOT01","701","1146","Y","E15","APPLICATION SITE VESICLES","APPLICATION SITE VESICLES",null,"APPLICATION SITE VESICLES",null,"HLT_0180",null,"HLGT_0576",null,"GENERAL DISORDERS AND ADMINISTRATION SITE CONDITIONS",null,2,"No","",4,"NOT RECOVERED/NOT RESOLVED","N","N","N","N","","N","N","N","30-JUN-2013","26-JUN-2013","","Y"],[69,"CDISCPILOT01","701","1146","Y","E16","APPLICATION SITE IRRITATION","APPLICATION SITE BURNING",null,"APPLICATION SITE IRRITATION",null,"HLT_0061",null,"HLGT_0346",null,"GENERAL DISORDERS AND ADMINISTRATION SITE CONDITIONS",null,2,"No","",4,"NOT RECOVERED/NOT RESOLVED","N","N","N","N","","N","N","N","30-JUN-2013","26-JUN-2013","","Y"],[70,"CDISCPILOT01","701","1148","Y","E03","DYSPEPSIA","INDIGESTION",null,"DYSPEPSIA",null,"HLT_0244",null,"HLGT_0716",null,"GASTROINTESTINAL DISORDERS",null,2,"No","",1,"NOT RECOVERED/NOT RESOLVED","N","N","N","N","","N","N","N","08-FEB-2014","FEB-2012","","Y"],[71,"CDISCPILOT01","701","1148","Y","E20","APPLICATION SITE ERYTHEMA","APPLICATION SITE REDNESS",null,"APPLICATION SITE ERYTHEMA",null,"HLT_0617",null,"HLGT_0152",null,"GENERAL DISORDERS AND ADMINISTRATION SITE CONDITIONS",null,1,"No","",4,"NOT RECOVERED/NOT RESOLVED","N","N","N","N","","N","N","N","05-SEP-2013","25-AUG-2013","","Y"],[72,"CDISCPILOT01","701","1148","Y","E21","APPLICATION SITE PRURITUS","APPLICATION SITE ITCHING",null,"APPLICATION SITE PRURITUS",null,"HLT_0317",null,"HLGT_0338",null,"GENERAL DISORDERS AND ADMINISTRATION SITE CONDITIONS",null,1,"No","",4,"NOT RECOVERED/NOT RESOLVED","N","N","N","N","","N","N","N","05-SEP-2013","25-AUG-2013","","Y"],[73,"CDISCPILOT01","701","1148","Y","E23","LOWER RESPIRATORY TRACT INFECTION","CHEST COLD",null,"LOWER RESPIRATORY TRACT INFECTION",null,"HLT_0052",null,"HLGT_0217",null,"INFECTIONS AND INFESTATIONS",null,2,"No","",1,"NOT RECOVERED/NOT RESOLVED","N","N","N","N","","N","N","N","18-OCT-2013","12-OCT-2013","10-NOV-2013","N"],[74,"CDISCPILOT01","701","1148","Y","E23","LOWER RESPIRATORY TRACT INFECTION","CHEST COLD",null,"LOWER RESPIRATORY TRACT INFECTION",null,"HLT_0052",null,"HLGT_0217",null,"INFECTIONS AND INFESTATIONS",null,2,"No","",1,"RECOVERED/RESOLVED","N","N","N","N","","N","N","N","17-NOV-2013","12-OCT-2013","10-NOV-2013","N"],[75,"CDISCPILOT01","701","1148","Y","E24","FLANK PAIN","FLANK PAIN",null,"FLANK PAIN",null,"HLT_0484",null,"HLGT_0543",null,"MUSCULOSKELETAL AND CONNECTIVE TISSUE DISORDERS",null,2,"No","",1,"RECOVERED/RESOLVED","N","N","N","N","","N","N","N","10-JAN-2014","15-DEC-2013","17-DEC-2013","N"],[76,"CDISCPILOT01","701","1148","Y","E25","CALCULUS URETHRAL","URETHRAL CALCULUS",null,"CALCULUS URETHRAL",null,"HLT_0550",null,"HLGT_0414",null,"RENAL AND URINARY DISORDERS",null,2,"No","",1,"RECOVERED/RESOLVED","N","N","N","N","","N","N","N","10-JAN-2014","17-DEC-2013","17-DEC-2013","N"],[77,"CDISCPILOT01","701","1148","Y","E26","DEPRESSED MOOD","DEPRESSED MOOD",null,"DEPRESSED MOOD",null,"HLT_0784",null,"HLGT_0122",null,"PSYCHIATRIC DISORDERS",null,2,"No","",1,"NOT RECOVERED/NOT RESOLVED","N","N","N","N","","N","N","N","08-FEB-2014","29-JUL-2013","","Y"],[78,"CDISCPILOT01","701","1148","Y","E27","ACTINIC KERATOSIS","ACTINIC KERATOSIS",null,"ACTINIC KERATOSIS",null,"HLT_0609",null,"HLGT_0490",null,"SKIN AND SUBCUTANEOUS TISSUE DISORDERS",null,1,"No","",1,"NOT RECOVERED/NOT RESOLVED","N","N","N","N","","N","N","N","20-FEB-2014","12-FEB-2014","","Y"],[79,"CDISCPILOT01","701","1148","Y","E28","EPISTAXIS","NOSE BLEED",null,"EPISTAXIS",null,"HLT_0386",null,"HLGT_0577",null,"RESPIRATORY, THORACIC AND MEDIASTINAL DISORDERS",null,1,"No","",1,"RECOVERED/RESOLVED","N","N","N","N","","N","N","N","10-JAN-2014","03-JAN-2014","03-JAN-2014","N"],[80,"CDISCPILOT01","701","1153","Y","E06","INCREASED APPETITE","INCREASED APPETITE",null,"INCREASED APPETITE",null,"HLT_0566",null,"HLGT_0769",null,"METABOLISM AND NUTRITION DISORDERS",null,1,"No","",3,"NOT RECOVERED/NOT RESOLVED","N","N","N","N","","N","N","N","19-OCT-2013","13-OCT-2013","06-NOV-2013","N"],[81,"CDISCPILOT01","701","1153","Y","E06","INCREASED APPETITE","INCREASED APPETITE",null,"INCREASED APPETITE",null,"HLT_0566",null,"HLGT_0769",null,"METABOLISM AND NUTRITION DISORDERS",null,1,"No","",3,"RECOVERED/RESOLVED","N","N","N","N","","N","N","N","18-NOV-2013","13-OCT-2013","06-NOV-2013","N"],[82,"CDISCPILOT01","701","1162","N","","","",null,"",null,"",null,"",null,"",null,null,"","",null,"","","","","","","","","","","","",""],[83,"CDISCPILOT01","701","1176","N","","","",null,"",null,"",null,"",null,"",null,null,"","",null,"","","","","","","","","","","","",""],[84,"CDISCPILOT01","701","1180","Y","E01","VOMITING","VOMITING",null,"VOMITING",null,"HLT_0016",null,"HLGT_0350",null,"GASTROINTESTINAL DISORDERS",null,1,"No","",1,"NOT RECOVERED/NOT RESOLVED","N","N","N","N","","N","N","N","12-FEB-2013","12-FEB-2013","12-FEB-2013","N"],[85,"CDISCPILOT01","701","1180","Y","E01","VOMITING","VOMITING",null,"VOMITING",null,"HLT_0016",null,"HLGT_0350",null,"GASTROINTESTINAL DISORDERS",null,1,"No","",1,"RECOVERED/RESOLVED","N","N","N","N","","N","N","N","25-FEB-2013","12-FEB-2013","12-FEB-2013","N"],[86,"CDISCPILOT01","701","1180","Y","E02","MICTURITION URGENCY","URINARY URGENCY",null,"MICTURITION URGENCY",null,"HLT_0294",null,"HLGT_0483",null,"RENAL AND URINARY DISORDERS",null,1,"No","",3,"NOT RECOVERED/NOT RESOLVED","N","N","N","N","","N","N","N","25-FEB-2013","15-FEB-2013","19-MAR-2013","N"],[87,"CDISCPILOT01","701","1180","Y","E02","MICTURITION URGENCY","URINARY URGENCY",null,"MICTURITION URGENCY",null,"HLT_0294",null,"HLGT_0483",null,"RENAL AND URINARY DISORDERS",null,1,"No","",3,"RECOVERED/RESOLVED","N","N","N","N","","N","N","N","23-MAR-2013","15-FEB-2013","19-MAR-2013","N"],[88,"CDISCPILOT01","701","1180","Y","E03","NASOPHARYNGITIS","COLD",null,"NASOPHARYNGITIS",null,"HLT_0036",null,"HLGT_0709",null,"INFECTIONS AND INFESTATIONS",null,1,"No","",1,"RECOVERED/RESOLVED","N","N","N","N","","N","N","N","11-MAR-2013","06-MAR-2013","07-MAR-2013","N"],[89,"CDISCPILOT01","701","1180","Y","E04","HEADACHE","HEADACHE",null,"HEADACHE",null,"HLT_0064",null,"HLGT_0344",null,"NERVOUS SYSTEM DISORDERS",null,2,"No","",1,"NOT RECOVERED/NOT RESOLVED","N","N","N","N","","N","N","N","11-MAR-2013","2002","","Y"],[90,"CDISCPILOT01","701","1180","Y","E05","APPLICATION SITE VESICLES","APPLICATION SITE BLISTER",null,"APPLICATION SITE VESICLES",null,"HLT_0180",null,"HLGT_0576",null,"GENERAL DISORDERS AND ADMINISTRATION SITE CONDITIONS",null,2,"No","",3,"NOT RECOVERED/NOT RESOLVED","N","N","N","N","","N","N","N","23-MAR-2013","19-MAR-2013","","Y"],[91,"CDISCPILOT01","701","1180","Y","E06","APPLICATION SITE PRURITUS","APPLICATION SITE ITCHING",null,"APPLICATION SITE PRURITUS",null,"HLT_0317",null,"HLGT_0338",null,"GENERAL DISORDERS AND ADMINISTRATION SITE CONDITIONS",null,2,"No","",3,"NOT RECOVERED/NOT RESOLVED","N","N","N","N","","N","N","N","23-MAR-2013","19-MAR-2013","","Y"],[92,"CDISCPILOT01","701","1180","Y","E07","APPLICATION SITE ERYTHEMA","APPLICATION SITE ERYTHEMA",null,"APPLICATION SITE ERYTHEMA",null,"HLT_0617",null,"HLGT_0152",null,"GENERAL DISORDERS AND ADMINISTRATION SITE CONDITIONS",null,2,"No","",3,"NOT RECOVERED/NOT RESOLVED","N","N","N","N","","N","N","N","23-MAR-2013","19-MAR-2013","","Y"],[93,"CDISCPILOT01","701","1181","Y","E16","AGITATION","AGITATION",null,"AGITATION",null,"HLT_0140",null,"HLGT_0170",null,"PSYCHIATRIC DISORDERS",null,2,"No","",1,"RECOVERED/RESOLVED","N","N","N","N","","N","N","N","12-DEC-2013","09-DEC-2013","09-DEC-2013","N"],[94,"CDISCPILOT01","701","1188","Y","E04","ERYTHEMA","ERYTHEMA",null,"ERYTHEMA",null,"HLT_0284",null,"HLGT_0192",null,"SKIN AND SUBCUTANEOUS TISSUE DISORDERS",null,1,"No","",4,"NOT RECOVERED/NOT RESOLVED","N","N","N","N","","N","N","N","02-MAR-2013","16-FEB-2013","","Y"],[95,"CDISCPILOT01","701","1188","Y","E04","ERYTHEMA","ERYTHEMA",null,"ERYTHEMA",null,"HLT_0284",null,"HLGT_0192",null,"SKIN AND SUBCUTANEOUS TISSUE DISORDERS",null,2,"No","",4,"NOT RECOVERED/NOT RESOLVED","N","N","N","N","","N","N","N","16-MAR-2013","16-FEB-2013","","Y"],[96,"CDISCPILOT01","701","1188","Y","E05","PRURITUS","ITCHING",null,"PRURITUS",null,"HLT_0778",null,"HLGT_0695",null,"SKIN AND SUBCUTANEOUS TISSUE DISORDERS",null,1,"No","",4,"NOT RECOVERED/NOT RESOLVED","N","N","N","N","","N","N","N","02-MAR-2013","16-FEB-2013","","Y"],[97,"CDISCPILOT01","701","1188","Y","E05","PRURITUS","ITCHING",null,"PRURITUS",null,"HLT_0778",null,"HLGT_0695",null,"SKIN AND SUBCUTANEOUS TISSUE DISORDERS",null,2,"No","",4,"NOT RECOVERED/NOT RESOLVED","N","N","N","N","","N","N","N","16-MAR-2013","16-FEB-2013","","Y"],[98,"CDISCPILOT01","701","1188","Y","E06","URTICARIA","WELTS",null,"URTICARIA",null,"HLT_0420",null,"HLGT_0705",null,"SKIN AND SUBCUTANEOUS TISSUE DISORDERS",null,1,"No","",4,"NOT RECOVERED/NOT RESOLVED","N","N","N","N","","N","N","N","16-MAR-2013","04-MAR-2013","","Y"],[99,"CDISCPILOT01","701","1188","Y","E06","URTICARIA","WELTS",null,"URTICARIA",null,"HLT_0420",null,"HLGT_0705",null,"SKIN AND SUBCUTANEOUS TISSUE DISORDERS",null,2,"No","",4,"NOT RECOVERED/NOT RESOLVED","N","N","N","N","","N","N","N","25-MAR-2013","04-MAR-2013","","Y"],[100,"CDISCPILOT01","701","1188","Y","E09","APPLICATION SITE URTICARIA","APPLICATION SITE URTICARIA",null,"APPLICATION SITE URTICARIA",null,"HLT_0196",null,"HLGT_0233",null,"GENERAL DISORDERS AND ADMINISTRATION SITE CONDITIONS",null,1,"No","",4,"NOT RECOVERED/NOT RESOLVED","N","N","N","N","","N","N","N","25-MAR-2013","21-MAR-2013","","Y"],[101,"CDISCPILOT01","701","1188","Y","E10","URTICARIA","WELTS",null,"URTICARIA",null,"HLT_0420",null,"HLGT_0705",null,"SKIN AND SUBCUTANEOUS TISSUE DISORDERS",null,1,"No","",4,"NOT RECOVERED/NOT RESOLVED","N","N","N","N","","N","N","N","25-MAR-2013","21-MAR-2013","","Y"],[102,"CDISCPILOT01","701","1192","Y","E01","COUGH","COUGH",null,"COUGH",null,"HLT_0701",null,"HLGT_0280",null,"RESPIRATORY, THORACIC AND MEDIASTINAL DISORDERS",null,2,"No","",1,"NOT RECOVERED/NOT RESOLVED","N","N","N","N","","N","N","N","23-SEP-2012","JUN-2010","","Y"],[103,"CDISCPILOT01","701","1192","Y","E01","COUGH","COUGH",null,"COUGH",null,"HLT_0701",null,"HLGT_0280",null,"RESPIRATORY, THORACIC AND MEDIASTINAL DISORDERS",null,1,"No","",1,"NOT RECOVERED/NOT RESOLVED","N","N","N","N","","N","N","N","14-OCT-2012","JUN-2010","","Y"],[104,"CDISCPILOT01","701","1192","Y","E06","NASAL MUCOSA BIOPSY","NASAL MUCOSA BIOPSY",null,"NASAL MUCOSA BIOPSY",null,"HLT_0680",null,"HLGT_0396",null,"INVESTIGATIONS",null,1,"No","",1,"RECOVERED/RESOLVED","N","N","N","N","","N","N","N","07-AUG-2012","03-AUG-2012","03-AUG-2012","N"],[105,"CDISCPILOT01","701","1192","Y","E08","SECRETION DISCHARGE","SECRETION DISCHARGE",null,"SECRETION DISCHARGE",null,"HLT_0683",null,"HLGT_0575",null,"GENERAL DISORDERS AND ADMINISTRATION SITE CONDITIONS",null,1,"No","",1,"NOT RECOVERED/NOT RESOLVED","N","N","N","N","","N","N","N","07-AUG-2012","07-AUG-2012","14-SEP-2012","N"],[106,"CDISCPILOT01","701","1192","Y","E08","SECRETION DISCHARGE","SECRETION DISCHARGE",null,"SECRETION DISCHARGE",null,"HLT_0683",null,"HLGT_0575",null,"GENERAL DISORDERS AND ADMINISTRATION SITE CONDITIONS",null,1,"No","",1,"RECOVERED/RESOLVED","N","N","N","N","","N","N","N","23-SEP-2012","07-AUG-2012","14-SEP-2012","N"],[107,"CDISCPILOT01","701","1192","Y","E09","ERYTHEMA","ERYTHEMA FACIAL",null,"ERYTHEMA",null,"HLT_0284",null,"HLGT_0192",null,"SKIN AND SUBCUTANEOUS TISSUE DISORDERS",null,1,"No","",1,"NOT RECOVERED/NOT RESOLVED","N","N","N","N","","N","N","N","07-AUG-2012","07-AUG-2012","14-SEP-2012","N"],[108,"CDISCPILOT01","701","1192","Y","E09","ERYTHEMA","ERYTHEMA FACIAL",null,"ERYTHEMA",null,"HLT_0284",null,"HLGT_0192",null,"SKIN AND SUBCUTANEOUS TISSUE DISORDERS",null,1,"No","",1,"RECOVERED/RESOLVED","N","N","N","N","","N","N","N","23-SEP-2012","07-AUG-2012","14-SEP-2012","N"],[109,"CDISCPILOT01","701","1192","Y","E10","PNEUMONIA","PNEUMONIA",null,"PNEUMONIA",null,"HLT_0251",null,"HLGT_0671",null,"INFECTIONS AND INFESTATIONS",null,2,"No","",1,"NOT RECOVERED/NOT RESOLVED","N","N","N","N","","Y","N","N","23-SEP-2012","07-SEP-2012","06-OCT-2012","N"],[110,"CDISCPILOT01","701","1192","Y","E10","PNEUMONIA","PNEUMONIA",null,"PNEUMONIA",null,"HLT_0251",null,"HLGT_0671",null,"INFECTIONS AND INFESTATIONS",null,2,"No","",1,"RECOVERED/RESOLVED","N","N","N","N","","Y","N","N","14-OCT-2012","07-SEP-2012","06-OCT-2012","N"],[111,"CDISCPILOT01","701","1192","Y","E11","MUSCULAR WEAKNESS","MUSCULAR WEAKNESS",null,"MUSCULAR WEAKNESS",null,"HLT_0444",null,"HLGT_0211",null,"MUSCULOSKELETAL AND CONNECTIVE TISSUE DISORDERS",null,2,"No","",1,"NOT RECOVERED/NOT RESOLVED","N","N","N","N","","N","N","N","23-SEP-2012","07-SEP-2012","30-SEP-2012","N"],[112,"CDISCPILOT01","701","1192","Y","E11","MUSCULAR WEAKNESS","MUSCULAR WEAKNESS",null,"MUSCULAR WEAKNESS",null,"HLT_0444",null,"HLGT_0211",null,"MUSCULOSKELETAL AND CONNECTIVE TISSUE DISORDERS",null,2,"No","",1,"RECOVERED/RESOLVED","N","N","N","N","","N","N","N","14-OCT-2012","07-SEP-2012","30-SEP-2012","N"],[113,"CDISCPILOT01","701","1192","Y","E12","APPLICATION SITE IRRITATION","APPLICATION SITE BURNING",null,"APPLICATION SITE IRRITATION",null,"HLT_0061",null,"HLGT_0346",null,"GENERAL DISORDERS AND ADMINISTRATION SITE CONDITIONS",null,1,"No","",4,"NOT RECOVERED/NOT RESOLVED","N","N","N","N","","N","N","N","13-DEC-2012","05-DEC-2012","16-DEC-2012","N"],[114,"CDISCPILOT01","701","1192","Y","E12","APPLICATION SITE IRRITATION","APPLICATION SITE BURNING",null,"APPLICATION SITE IRRITATION",null,"HLT_0061",null,"HLGT_0346",null,"GENERAL DISORDERS AND ADMINISTRATION SITE CONDITIONS",null,1,"No","",4,"RECOVERED/RESOLVED","N","N","N","N","","N","N","N","11-JAN-2013","05-DEC-2012","16-DEC-2012","N"],[115,"CDISCPILOT01","701","1192","Y","E13","APPLICATION SITE ERYTHEMA","APPLICATION SITE REDNESS",null,"APPLICATION SITE ERYTHEMA",null,"HLT_0617",null,"HLGT_0152",null,"GENERAL DISORDERS AND ADMINISTRATION SITE CONDITIONS",null,1,"No","",4,"NOT RECOVERED/NOT RESOLVED","N","N","N","N","","N","N","N","13-DEC-2012","05-DEC-2012","","Y"],[116,"CDISCPILOT01","701","1192","Y","E14","APPLICATION SITE PRURITUS","APPLICATION SITE ITCHING",null,"APPLICATION SITE PRURITUS",null,"HLT_0317",null,"HLGT_0338",null,"GENERAL DISORDERS AND ADMINISTRATION SITE CONDITIONS",null,1,"No","",4,"NOT RECOVERED/NOT RESOLVED","N","N","N","N","","N","N","N","13-DEC-2012","05-DEC-2012","","Y"],[117,"CDISCPILOT01","701","1203","Y","E05","EYE LASER SURGERY","EYE LASER SURGERY",null,"EYE LASER SURGERY",null,"HLT_0355",null,"HLGT_0189",null,"SURGICAL AND MEDICAL PROCEDURES",null,1,"No","",1,"RECOVERED/RESOLVED","N","N","N","N","","N","N","N","30-MAR-2013","21-MAR-2013","21-MAR-2013","N"],[118,"CDISCPILOT01","701","1211","Y","E03","JOINT DISLOCATION","SHOULDER DISLOCATION",null,"JOINT DISLOCATION",null,"HLT_0035",null,"HLGT_0227",null,"INJURY, POISONING AND PROCEDURAL COMPLICATIONS",null,2,"No","",1,"RECOVERED/RESOLVED","N","N","N","N","14-JAN-2013","N","N","N","28-NOV-2012","21-NOV-2012","21-NOV-2012","N"],[119,"CDISCPILOT01","701","1211","Y","E04","SHOULDER PAIN","SHOULDER PAIN",null,"SHOULDER PAIN",null,"HLT_0527",null,"HLGT_0288",null,"MUSCULOSKELETAL AND CONNECTIVE TISSUE DISORDERS",null,1,"No","",1,"NOT RECOVERED/NOT RESOLVED","N","N","N","N","14-JAN-2013","N","N","N","28-NOV-2012","21-NOV-2012","","Y"],[120,"CDISCPILOT01","701","1211","Y","E05","APPLICATION SITE ERYTHEMA","APPLICATION SITE REDNESS",null,"APPLICATION SITE ERYTHEMA",null,"HLT_0617",null,"HLGT_0152",null,"GENERAL DISORDERS AND ADMINISTRATION SITE CONDITIONS",null,1,"No","",3,"NOT RECOVERED/NOT RESOLVED","N","N","N","N","14-JAN-2013","N","N","N","11-DEC-2012","29-NOV-2012","","Y"],[121,"CDISCPILOT01","701","1211","Y","E06","SKIN LACERATION","LACERATION OF FACE",null,"SKIN LACERATION",null,"HLT_0075",null,"HLGT_0118",null,"INJURY, POISONING AND PROCEDURAL COMPLICATIONS",null,1,"No","",1,"NOT RECOVERED/NOT RESOLVED","N","N","N","N","14-JAN-2013","N","N","N","11-DEC-2012","09-DEC-2012","","Y"],[122,"CDISCPILOT01","701","1211","Y","E08","APPLICATION SITE PRURITUS","APPLICATION SITE ITCHING",null,"APPLICATION SITE PRURITUS",null,"HLT_0317",null,"HLGT_0338",null,"GENERAL DISORDERS AND ADMINISTRATION SITE CONDITIONS",null,1,"No","",3,"NOT RECOVERED/NOT RESOLVED","N","N","N","N","14-JAN-2013","N","N","N","28-NOV-2012","16-NOV-2012","","Y"],[123,"CDISCPILOT01","701","1211","Y","E09","INCONTINENCE","INCONTINENCE",null,"INCONTINENCE",null,"HLT_0560",null,"HLGT_0503",null,"RENAL AND URINARY DISORDERS",null,1,"No","",1,"NOT RECOVERED/NOT RESOLVED","N","N","N","N","14-JAN-2013","N","N","N","28-NOV-2012","22-NOV-2012","","Y"],[124,"CDISCPILOT01","701","1211","Y","E11","SUDDEN DEATH","SUDDEN DEATH",null,"SUDDEN DEATH",null,"HLT_0142",null,"HLGT_0272",null,"GENERAL DISORDERS AND ADMINISTRATION SITE CONDITIONS",null,3,"No","",1,"FATAL","N","N","N","Y","14-JAN-2013","N","Y","N","14-JAN-2013","14-JAN-2013","14-JAN-2013","N"],[125,"CDISCPILOT01","701","1211","Y","E12","CONFUSIONAL STATE","CONFUSION",null,"CONFUSIONAL STATE",null,"HLT_0642",null,"HLGT_0329",null,"PSYCHIATRIC DISORDERS",null,2,"No","",1,"NOT RECOVERED/NOT RESOLVED","N","N","N","N","14-JAN-2013","N","N","N","14-JAN-2013","11-JAN-2013","","Y"],[126,"CDISCPILOT01","701","1211","Y","E13","DYSPNOEA","SHORTNESS OF BREATH",null,"DYSPNOEA",null,"HLT_0296",null,"HLGT_0255",null,"RESPIRATORY, THORACIC AND MEDIASTINAL DISORDERS",null,2,"No","",1,"NOT RECOVERED/NOT RESOLVED","N","N","N","N","14-JAN-2013","N","N","N","14-JAN-2013","11-JAN-2013","","Y"],[127,"CDISCPILOT01","701","1234","N","","","",null,"",null,"",null,"",null,"",null,null,"","",null,"","","","","","","","","","","","",""],[128,"CDISCPILOT01","701","1239","Y","E11","ERYTHEMA","ERYTHEMA",null,"ERYTHEMA",null,"HLT_0284",null,"HLGT_0192",null,"SKIN AND SUBCUTANEOUS TISSUE DISORDERS",null,1,"No","",3,"NOT RECOVERED/NOT RESOLVED","N","N","N","N","","N","N","N","25-JAN-2014","12-JAN-2014","","Y"],[129,"CDISCPILOT01","701","1239","Y","E11","ERYTHEMA","ERYTHEMA",null,"ERYTHEMA",null,"HLT_0284",null,"HLGT_0192",null,"SKIN AND SUBCUTANEOUS TISSUE DISORDERS",null,2,"No","",3,"NOT RECOVERED/NOT RESOLVED","N","N","N","N","","N","N","N","19-FEB-2014","12-JAN-2014","","Y"],[130,"CDISCPILOT01","701","1239","Y","E12","PRURITUS","ITCHING",null,"PRURITUS",null,"HLT_0778",null,"HLGT_0695",null,"SKIN AND SUBCUTANEOUS TISSUE DISORDERS",null,1,"No","",3,"NOT RECOVERED/NOT RESOLVED","N","N","N","N","","N","N","N","25-JAN-2014","13-JAN-2014","","Y"],[131,"CDISCPILOT01","701","1239","Y","E13","APPLICATION SITE IRRITATION","APPLICATION SITE IRRITATION",null,"APPLICATION SITE IRRITATION",null,"HLT_0061",null,"HLGT_0346",null,"GENERAL DISORDERS AND ADMINISTRATION SITE CONDITIONS",null,1,"No","",4,"NOT RECOVERED/NOT RESOLVED","N","N","N","N","","N","N","N","25-JAN-2014","20-JAN-2014","08-FEB-2014","N"],[132,"CDISCPILOT01","701","1239","Y","E13","APPLICATION SITE IRRITATION","APPLICATION SITE IRRITATION",null,"APPLICATION SITE IRRITATION",null,"HLT_0061",null,"HLGT_0346",null,"GENERAL DISORDERS AND ADMINISTRATION SITE CONDITIONS",null,1,"No","",4,"RECOVERED/RESOLVED","N","N","N","N","","N","N","N","10-FEB-2014","20-JAN-2014","08-FEB-2014","N"],[133,"CDISCPILOT01","701","1239","Y","E14","UPPER RESPIRATORY TRACT INFECTION","UPPER RESPIRATORY INFECTION",null,"UPPER RESPIRATORY TRACT INFECTION",null,"HLT_0520",null,"HLGT_0489",null,"INFECTIONS AND INFESTATIONS",null,1,"No","",1,"NOT RECOVERED/NOT RESOLVED","N","N","N","N","","N","N","N","06-MAR-2014","20-FEB-2014","12-MAR-2014","N"],[134,"CDISCPILOT01","701","1239","Y","E14","UPPER RESPIRATORY TRACT INFECTION","UPPER RESPIRATORY INFECTION",null,"UPPER RESPIRATORY TRACT INFECTION",null,"HLT_0520",null,"HLGT_0489",null,"INFECTIONS AND INFESTATIONS",null,1,"No","",1,"RECOVERED/RESOLVED","N","N","N","N","","N","N","N","02-APR-2014","20-FEB-2014","12-MAR-2014","N"],[135,"CDISCPILOT01","701","1239","Y","E15","SKIN ODOUR ABNORMAL","SKIN ODOR ABNORMAL",null,"SKIN ODOUR ABNORMAL",null,"HLT_0510",null,"HLGT_0184",null,"SKIN AND SUBCUTANEOUS TISSUE DISORDERS",null,1,"No","",2,"NOT RECOVERED/NOT RESOLVED","N","N","N","N","","N","N","N","25-JAN-2014","12-JAN-2014","","Y"],[136,"CDISCPILOT01","701","1239","Y","E16","FATIGUE","FATIGUE",null,"FATIGUE",null,"HLT_0043",null,"HLGT_0181",null,"GENERAL DISORDERS AND ADMINISTRATION SITE CONDITIONS",null,1,"No","",2,"NOT RECOVERED/NOT RESOLVED","N","N","N","N","","N","N","N","02-APR-2014","MAR-2014","","Y"],[137,"CDISCPILOT01","701","1239","Y","E17","HORDEOLUM","STYE",null,"HORDEOLUM",null,"HLT_0604",null,"HLGT_0290",null,"INFECTIONS AND INFESTATIONS",null,1,"No","",1,"NOT RECOVERED/NOT RESOLVED","N","N","N","N","","N","N","N","02-MAY-2014","APR-2014","","Y"],[138,"CDISCPILOT01","701","1240","N","","","",null,"",null,"",null,"",null,"",null,null,"","",null,"","","","","","","","","","","","",""],[139,"CDISCPILOT01","701","1275","Y","E04","NAUSEA","NAUSEA",null,"NAUSEA",null,"HLT_0742",null,"HLGT_0326",null,"GASTROINTESTINAL DISORDERS",null,1,"No","",3,"NOT RECOVERED/NOT RESOLVED","N","N","N","N","","N","N","N","22-FEB-2014","13-FEB-2014","03-JUN-2014","N"],[140,"CDISCPILOT01","701","1275","Y","E04","NAUSEA","NAUSEA",null,"NAUSEA",null,"HLT_0742",null,"HLGT_0326",null,"GASTROINTESTINAL DISORDERS",null,1,"No","",3,"RECOVERED/RESOLVED","N","N","N","N","","N","N","N","14-JUN-2014","13-FEB-2014","03-JUN-2014","N"],[141,"CDISCPILOT01","701","1275","Y","E05","VOMITING","VOMITING",null,"VOMITING",null,"HLT_0016",null,"HLGT_0350",null,"GASTROINTESTINAL DISORDERS",null,1,"No","",3,"RECOVERED/RESOLVED","N","N","N","N","","N","N","N","07-MAR-2014","23-FEB-2014","23-FEB-2014","N"],[142,"CDISCPILOT01","701","1275","Y","E06","ERYTHEMA","ERYTHEMA",null,"ERYTHEMA",null,"HLT_0284",null,"HLGT_0192",null,"SKIN AND SUBCUTANEOUS TISSUE DISORDERS",null,1,"No","",3,"NOT RECOVERED/NOT RESOLVED","N","N","N","N","","N","N","N","07-MAR-2014","24-FEB-2014","12-JUN-2014","N"],[143,"CDISCPILOT01","701","1275","Y","E06","ERYTHEMA","ERYTHEMA",null,"ERYTHEMA",null,"HLT_0284",null,"HLGT_0192",null,"SKIN AND SUBCUTANEOUS TISSUE DISORDERS",null,1,"No","",3,"RECOVERED/RESOLVED","N","N","N","N","","N","N","N","14-JUN-2014","24-FEB-2014","12-JUN-2014","N"],[144,"CDISCPILOT01","701","1275","Y","E07","SALIVARY HYPERSECRETION","HYPERSALIVATION",null,"SALIVARY HYPERSECRETION",null,"HLT_0374",null,"HLGT_0488",null,"GASTROINTESTINAL DISORDERS",null,1,"No","",3,"NOT RECOVERED/NOT RESOLVED","N","N","N","N","","N","N","N","07-MAR-2014","24-FEB-2014","03-JUN-2014","N"],[145,"CDISCPILOT01","701","1275","Y","E07","SALIVARY HYPERSECRETION","HYPERSALIVATION",null,"SALIVARY HYPERSECRETION",null,"HLT_0374",null,"HLGT_0488",null,"GASTROINTESTINAL DISORDERS",null,1,"No","",3,"RECOVERED/RESOLVED","N","N","N","N","","N","N","N","14-JUN-2014","24-FEB-2014","03-JUN-2014","N"],[146,"CDISCPILOT01","701","1275","Y","E08","PAROSMIA","STRANGE SMELL SENSATION",null,"PAROSMIA",null,"HLT_0258",null,"HLGT_0471",null,"NERVOUS SYSTEM DISORDERS",null,1,"No","",3,"NOT RECOVERED/NOT RESOLVED","N","N","N","N","","N","N","N","07-MAR-2014","24-FEB-2014","03-JUN-2014","N"],[147,"CDISCPILOT01","701","1275","Y","E08","PAROSMIA","STRANGE SMELL SENSATION",null,"PAROSMIA",null,"HLT_0258",null,"HLGT_0471",null,"NERVOUS SYSTEM DISORDERS",null,1,"No","",3,"RECOVERED/RESOLVED","N","N","N","N","","N","N","N","14-JUN-2014","24-FEB-2014","03-JUN-2014","N"],[148,"CDISCPILOT01","701","1275","Y","E09","COUGH","COUGH",null,"COUGH",null,"HLT_0701",null,"HLGT_0280",null,"RESPIRATORY, THORACIC AND MEDIASTINAL DISORDERS",null,1,"No","",1,"NOT RECOVERED/NOT RESOLVED","N","N","N","N","","N","N","N","22-MAR-2014","12-MAR-2014","27-MAR-2014","N"],[149,"CDISCPILOT01","701","1275","Y","E09","COUGH","COUGH",null,"COUGH",null,"HLT_0701",null,"HLGT_0280",null,"RESPIRATORY, THORACIC AND MEDIASTINAL DISORDERS",null,1,"No","",1,"RECOVERED/RESOLVED","N","N","N","N","","N","N","N","05-APR-2014","12-MAR-2014","27-MAR-2014","N"],[150,"CDISCPILOT01","701","1275","Y","E10","NASAL CONGESTION","NASAL CONGESTION",null,"NASAL CONGESTION",null,"HLT_0118",null,"HLGT_0549",null,"RESPIRATORY, THORACIC AND MEDIASTINAL DISORDERS",null,1,"No","",1,"NOT RECOVERED/NOT RESOLVED","N","N","N","N","","N","N","N","22-MAR-2014","12-MAR-2014","27-MAR-2014","N"],[151,"CDISCPILOT01","701","1275","Y","E10","NASAL CONGESTION","NASAL CONGESTION",null,"NASAL CONGESTION",null,"HLT_0118",null,"HLGT_0549",null,"RESPIRATORY, THORACIC AND MEDIASTINAL DISORDERS",null,1,"No","",1,"RECOVERED/RESOLVED","N","N","N","N","","N","N","N","05-APR-2014","12-MAR-2014","27-MAR-2014","N"],[152,"CDISCPILOT01","701","1275","Y","E11","PRURITUS","ITCHING",null,"PRURITUS",null,"HLT_0778",null,"HLGT_0695",null,"SKIN AND SUBCUTANEOUS TISSUE DISORDERS",null,1,"No","",3,"NOT RECOVERED/NOT RESOLVED","N","N","N","N","","N","N","N","07-MAR-2014","24-FEB-2014","12-JUN-2014","N"],[153,"CDISCPILOT01","701","1275","Y","E11","PRURITUS","ITCHING",null,"PRURITUS",null,"HLT_0778",null,"HLGT_0695",null,"SKIN AND SUBCUTANEOUS TISSUE DISORDERS",null,1,"No","",3,"RECOVERED/RESOLVED","N","N","N","N","","N","N","N","14-JUN-2014","24-FEB-2014","12-JUN-2014","N"],[154,"CDISCPILOT01","701","1287","Y","E02","SALIVARY HYPERSECRETION","INCREASED SALIVATION",null,"SALIVARY HYPERSECRETION",null,"HLT_0374",null,"HLGT_0488",null,"GASTROINTESTINAL DISORDERS",null,1,"No","",1,"NOT RECOVERED/NOT RESOLVED","N","N","N","N","","N","N","N","11-FEB-2014","26-JAN-2014","","Y"],[155,"CDISCPILOT01","701","1287","Y","E03","APPLICATION SITE PRURITUS","APPLICATION SITE ITCHING",null,"APPLICATION SITE PRURITUS",null,"HLT_0317",null,"HLGT_0338",null,"GENERAL DISORDERS AND ADMINISTRATION SITE CONDITIONS",null,1,"No","",3,"NOT RECOVERED/NOT RESOLVED","N","N","N","N","","N","N","N","06-MAR-2014","22-FEB-2014","","Y"],[156,"CDISCPILOT01","701","1287","Y","E04","APPLICATION SITE ERYTHEMA","APPLICATION SITE REDNESS",null,"APPLICATION SITE ERYTHEMA",null,"HLT_0617",null,"HLGT_0152",null,"GENERAL DISORDERS AND ADMINISTRATION SITE CONDITIONS",null,1,"No","",4,"NOT RECOVERED/NOT RESOLVED","N","N","N","N","","N","N","N","21-MAR-2014","09-MAR-2014","","Y"],[157,"CDISCPILOT01","701","1287","Y","E05","RHINORRHOEA","RUNNY NOSE",null,"RHINORRHOEA",null,"HLT_0635",null,"HLGT_0460",null,"RESPIRATORY, THORACIC AND MEDIASTINAL DISORDERS",null,1,"No","",1,"NOT RECOVERED/NOT RESOLVED","N","N","N","N","","N","N","N","12-JUL-2014","09-JUL-2014","12-JUL-2014","N"],[158,"CDISCPILOT01","701","1287","Y","E05","RHINORRHOEA","RUNNY NOSE",null,"RHINORRHOEA",null,"HLT_0635",null,"HLGT_0460",null,"RESPIRATORY, THORACIC AND MEDIASTINAL DISORDERS",null,1,"No","",1,"RECOVERED/RESOLVED","N","N","N","N","","N","N","N","26-JUL-2014","09-JUL-2014","12-JUL-2014","N"],[159,"CDISCPILOT01","701","1294","Y","E06","APPLICATION SITE PRURITUS","APPLICATION SITE ITCHING",null,"APPLICATION SITE PRURITUS",null,"HLT_0317",null,"HLGT_0338",null,"GENERAL DISORDERS AND ADMINISTRATION SITE CONDITIONS",null,2,"No","",1,"RECOVERED/RESOLVED","N","N","N","N","","N","N","N","24-MAR-2013","22-MAR-2013","23-MAR-2013","N"],[160,"CDISCPILOT01","701","1294","Y","E07","APPLICATION SITE PRURITUS","APPLICATION SITE ITCHING",null,"APPLICATION SITE PRURITUS",null,"HLT_0317",null,"HLGT_0338",null,"GENERAL DISORDERS AND ADMINISTRATION SITE CONDITIONS",null,1,"No","",3,"NOT RECOVERED/NOT RESOLVED","N","N","N","N","","N","N","N","22-MAY-2013","19-MAY-2013","","Y"],[161,"CDISCPILOT01","701","1294","Y","E07","APPLICATION SITE PRURITUS","APPLICATION SITE ITCHING",null,"APPLICATION SITE PRURITUS",null,"HLT_0317",null,"HLGT_0338",null,"GENERAL DISORDERS AND ADMINISTRATION SITE CONDITIONS",null,2,"No","",3,"NOT RECOVERED/NOT RESOLVED","N","N","N","N","","N","N","N","14-JUN-2013","19-MAY-2013","","Y"],[162,"CDISCPILOT01","701","1294","Y","E08","APPLICATION SITE ERYTHEMA","APPLICATION SITE REDNESS",null,"APPLICATION SITE ERYTHEMA",null,"HLT_0617",null,"HLGT_0152",null,"GENERAL DISORDERS AND ADMINISTRATION SITE CONDITIONS",null,1,"No","",4,"NOT RECOVERED/NOT RESOLVED","N","N","N","N","","N","N","N","22-MAY-2013","19-MAY-2013","","Y"],[163,"CDISCPILOT01","701","1294","Y","E08","APPLICATION SITE ERYTHEMA","APPLICATION SITE REDNESS",null,"APPLICATION SITE ERYTHEMA",null,"HLT_0617",null,"HLGT_0152",null,"GENERAL DISORDERS AND ADMINISTRATION SITE CONDITIONS",null,2,"No","",4,"NOT RECOVERED/NOT RESOLVED","N","N","N","N","","N","N","N","14-JUN-2013","19-MAY-2013","","Y"],[164,"CDISCPILOT01","701","1294","Y","E09","RASH ERYTHEMATOUS","ERYTHEMATOUS RASH",null,"RASH ERYTHEMATOUS",null,"HLT_0336",null,"HLGT_0701",null,"SKIN AND SUBCUTANEOUS TISSUE DISORDERS",null,2,"No","",4,"NOT RECOVERED/NOT RESOLVED","N","N","N","N","","N","N","N","14-JUN-2013","10-JUN-2013","","Y"],[165,"CDISCPILOT01","701","1302","Y","E13","NASAL CONGESTION","NASAL CONGESTION",null,"NASAL CONGESTION",null,"HLT_0118",null,"HLGT_0549",null,"RESPIRATORY, THORACIC AND MEDIASTINAL DISORDERS",null,1,"No","",1,"NOT RECOVERED/NOT RESOLVED","N","N","N","N","","N","N","N","15-SEP-2013","01-SEP-2013","","Y"],[166,"CDISCPILOT01","701","1302","Y","E14","PHARYNGOLARYNGEAL PAIN","SORE THROAT",null,"PHARYNGOLARYNGEAL PAIN",null,"HLT_0130",null,"HLGT_0402",null,"RESPIRATORY, THORACIC AND MEDIASTINAL DISORDERS",null,1,"No","",1,"NOT RECOVERED/NOT RESOLVED","N","N","N","N","","N","N","N","15-SEP-2013","02-SEP-2013","","Y"],[167,"CDISCPILOT01","701","1302","Y","E15","PRODUCTIVE COUGH","PRODUCTIVE COUGH",null,"PRODUCTIVE COUGH",null,"HLT_0545",null,"HLGT_0681",null,"RESPIRATORY, THORACIC AND MEDIASTINAL DISORDERS",null,1,"No","",1,"NOT RECOVERED/NOT RESOLVED","N","N","N","N","","N","N","N","15-SEP-2013","02-SEP-2013","","Y"],[168,"CDISCPILOT01","701","1302","Y","E16","MALAISE","MALAISE",null,"MALAISE",null,"HLT_0456",null,"HLGT_0178",null,"GENERAL DISORDERS AND ADMINISTRATION SITE CONDITIONS",null,1,"No","",2,"NOT RECOVERED/NOT RESOLVED","N","N","N","N","","N","N","N","15-SEP-2013","02-SEP-2013","","Y"],[169,"CDISCPILOT01","701","1302","Y","E16","MALAISE","MALAISE",null,"MALAISE",null,"HLT_0456",null,"HLGT_0178",null,"GENERAL DISORDERS AND ADMINISTRATION SITE CONDITIONS",null,2,"No","",2,"NOT RECOVERED/NOT RESOLVED","N","N","N","N","","N","N","N","05-NOV-2013","02-SEP-2013","","Y"],[170,"CDISCPILOT01","701","1302","Y","E17","DIZZINESS","DIZZY",null,"DIZZINESS",null,"HLT_0619",null,"HLGT_0751",null,"NERVOUS SYSTEM DISORDERS",null,2,"No","",2,"RECOVERED/RESOLVED","N","N","N","N","","N","N","N","15-SEP-2013","02-SEP-2013","03-SEP-2013","N"],[171,"CDISCPILOT01","701","1302","Y","E18","MYALGIA","MYALGIA",null,"MYALGIA",null,"HLT_0700",null,"HLGT_0121",null,"MUSCULOSKELETAL AND CONNECTIVE TISSUE DISORDERS",null,1,"No","",3,"NOT RECOVERED/NOT RESOLVED","N","N","N","N","","N","N","N","15-SEP-2013","02-SEP-2013","","Y"],[172,"CDISCPILOT01","701","1302","Y","E19","CONTUSION","BRUISE",null,"CONTUSION",null,"HLT_0713",null,"HLGT_0381",null,"INJURY, POISONING AND PROCEDURAL COMPLICATIONS",null,1,"No","",2,"NOT RECOVERED/NOT RESOLVED","N","N","N","N","","N","N","N","15-SEP-2013","05-SEP-2013","08-OCT-2013","N"],[173,"CDISCPILOT01","701","1302","Y","E19","CONTUSION","BRUISE",null,"CONTUSION",null,"HLT_0713",null,"HLGT_0381",null,"INJURY, POISONING AND PROCEDURAL COMPLICATIONS",null,1,"No","",2,"RECOVERED/RESOLVED","N","N","N","N","","N","N","N","22-OCT-2013","05-SEP-2013","08-OCT-2013","N"],[174,"CDISCPILOT01","701","1302","Y","E20","DIZZINESS","LIGHTHEADEDNESS",null,"DIZZINESS",null,"HLT_0619",null,"HLGT_0751",null,"NERVOUS SYSTEM DISORDERS",null,1,"No","",3,"NOT RECOVERED/NOT RESOLVED","N","N","N","N","","N","N","N","15-SEP-2013","04-SEP-2013","","Y"],[175,"CDISCPILOT01","701","1302","Y","E21","APPLICATION SITE PERSPIRATION","APPLICATION SITE PERSPIRATION",null,"APPLICATION SITE PERSPIRATION",null,"HLT_0283",null,"HLGT_0403",null,"GENERAL DISORDERS AND ADMINISTRATION SITE CONDITIONS",null,1,"No","",3,"NOT RECOVERED/NOT RESOLVED","N","N","N","N","","N","N","N","15-SEP-2013","30-AUG-2013","","Y"],[176,"CDISCPILOT01","701","1302","Y","E22","PAIN","STINGING",null,"PAIN",null,"HLT_0314",null,"HLGT_0478",null,"GENERAL DISORDERS AND ADMINISTRATION SITE CONDITIONS",null,1,"No","",3,"NOT RECOVERED/NOT RESOLVED","N","N","N","N","","N","N","N","15-SEP-2013","31-AUG-2013","","Y"],[177,"CDISCPILOT01","701","1302","Y","E23","HEADACHE","HEADACHE",null,"HEADACHE",null,"HLT_0064",null,"HLGT_0344",null,"NERVOUS SYSTEM DISORDERS",null,1,"No","",1,"NOT RECOVERED/NOT RESOLVED","N","N","N","N","","N","N","N","15-SEP-2013","15-SEP-2013","","Y"],[178,"CDISCPILOT01","701","1302","Y","E24","HYPERHIDROSIS","PERSPIRATION EXCESSIVE",null,"HYPERHIDROSIS",null,"HLT_0587",null,"HLGT_0005",null,"SKIN AND SUBCUTANEOUS TISSUE DISORDERS",null,1,"No","",3,"NOT RECOVERED/NOT RESOLVED","N","N","N","N","","N","N","N","15-SEP-2013","30-AUG-2013","","Y"],[179,"CDISCPILOT01","701","1302","Y","E25","EPISTAXIS","NOSE BLEED",null,"EPISTAXIS",null,"HLT_0386",null,"HLGT_0577",null,"RESPIRATORY, THORACIC AND MEDIASTINAL DISORDERS",null,1,"No","",2,"NOT RECOVERED/NOT RESOLVED","N","N","N","N","","N","N","N","08-OCT-2013","30-SEP-2013","","Y"],[180,"CDISCPILOT01","701","1302","Y","E26","STOMACH DISCOMFORT","STOMACH UPSET",null,"STOMACH DISCOMFORT",null,"HLT_0065",null,"HLGT_0183",null,"GASTROINTESTINAL DISORDERS",null,1,"No","",3,"NOT RECOVERED/NOT RESOLVED","N","N","N","N","","N","N","N","15-SEP-2013","30-AUG-2013","","Y"],[181,"CDISCPILOT01","701","1302","Y","E27","APPLICATION SITE ERYTHEMA","APPLICATION SITE REDNESS",null,"APPLICATION SITE ERYTHEMA",null,"HLT_0617",null,"HLGT_0152",null,"GENERAL DISORDERS AND ADMINISTRATION SITE CONDITIONS",null,1,"No","",4,"NOT RECOVERED/NOT RESOLVED","N","N","N","N","","N","N","N","22-OCT-2013","15-OCT-2013","","Y"],[182,"CDISCPILOT01","701","1302","Y","E28","APPLICATION SITE PRURITUS","APPLICATION SITE ITCHING",null,"APPLICATION SITE PRURITUS",null,"HLT_0317",null,"HLGT_0338",null,"GENERAL DISORDERS AND ADMINISTRATION SITE CONDITIONS",null,1,"No","",4,"NOT RECOVERED/NOT RESOLVED","N","N","N","N","","N","N","N","22-OCT-2013","15-OCT-2013","","Y"],[183,"CDISCPILOT01","701","1302","Y","E29","RESPIRATORY TRACT CONGESTION","RESPIRATORY TRACT CONGESTION",null,"RESPIRATORY TRACT CONGESTION",null,"HLT_0330",null,"HLGT_0424",null,"RESPIRATORY, THORACIC AND MEDIASTINAL DISORDERS",null,1,"No","",1,"NOT RECOVERED/NOT RESOLVED","N","N","N","N","","N","N","N","05-NOV-2013","23-OCT-2013","","Y"],[184,"CDISCPILOT01","701","1302","Y","E30","RHINITIS","CORYZA",null,"RHINITIS",null,"HLT_0239",null,"HLGT_0322",null,"INFECTIONS AND INFESTATIONS",null,1,"No","",1,"NOT RECOVERED/NOT RESOLVED","N","N","N","N","","N","N","N","05-NOV-2013","23-OCT-2013","","Y"],[185,"CDISCPILOT01","701","1302","Y","E31","FEELING ABNORMAL","FOGGY FEELING IN HEAD",null,"FEELING ABNORMAL",null,"HLT_0524",null,"HLGT_0749",null,"GENERAL DISORDERS AND ADMINISTRATION SITE CONDITIONS",null,1,"No","",3,"NOT RECOVERED/NOT RESOLVED","N","N","N","N","","N","N","N","05-NOV-2013","24-OCT-2013","","Y"],[186,"CDISCPILOT01","701","1302","Y","E32","LISTLESS","LISTLESSNESS",null,"LISTLESS",null,"HLT_0657",null,"HLGT_0124",null,"PSYCHIATRIC DISORDERS",null,1,"No","",3,"NOT RECOVERED/NOT RESOLVED","N","N","N","N","","N","N","N","05-NOV-2013","24-OCT-2013","","Y"],[187,"CDISCPILOT01","701","1302","Y","E33","LIBIDO DECREASED","LIBIDO DECREASED",null,"LIBIDO DECREASED",null,"HLT_0338",null,"HLGT_0496",null,"PSYCHIATRIC DISORDERS",null,1,"No","",3,"NOT RECOVERED/NOT RESOLVED","N","N","N","N","","N","N","N","05-NOV-2013","24-OCT-2013","","Y"],[188,"CDISCPILOT01","701","1307","N","","","",null,"",null,"",null,"",null,"",null,null,"","",null,"","","","","","","","","","","","",""],[189,"CDISCPILOT01","701","1317","Y","E11","ONYCHOMYCOSIS","ONYCHOMYCOSIS",null,"ONYCHOMYCOSIS",null,"HLT_0275",null,"HLGT_0243",null,"INFECTIONS AND INFESTATIONS",null,1,"No","",1,"NOT RECOVERED/NOT RESOLVED","N","N","N","N","","N","N","N","20-MAY-2014","13-MAY-2014","","Y"],[190,"CDISCPILOT01","701","1317","Y","E12","CYST","CYST",null,"CYST",null,"HLT_0763",null,"HLGT_0341",null,"GENERAL DISORDERS AND ADMINISTRATION SITE CONDITIONS",null,1,"No","",1,"NOT RECOVERED/NOT RESOLVED","N","N","N","N","","N","N","N","20-MAY-2014","13-MAY-2014","","Y"],[191,"CDISCPILOT01","701","1317","Y","E13","APPLICATION SITE ERYTHEMA","APPLICATION SITE REDNESS",null,"APPLICATION SITE ERYTHEMA",null,"HLT_0617",null,"HLGT_0152",null,"GENERAL DISORDERS AND ADMINISTRATION SITE CONDITIONS",null,1,"No","",3,"NOT RECOVERED/NOT RESOLVED","N","N","N","N","","N","N","N","03-JUL-2014","23-JUN-2014","","Y"],[192,"CDISCPILOT01","701","1317","Y","E14","APPLICATION SITE PRURITUS","APPLICATION SITE ITCHING",null,"APPLICATION SITE PRURITUS",null,"HLT_0317",null,"HLGT_0338",null,"GENERAL DISORDERS AND ADMINISTRATION SITE CONDITIONS",null,1,"No","",3,"NOT RECOVERED/NOT RESOLVED","N","N","N","N","","N","N","N","03-JUL-2014","23-JUN-2014","","Y"],[193,"CDISCPILOT01","701","1317","Y","E15","APPLICATION SITE URTICARIA","APPLICATION SITE URTICARIA",null,"APPLICATION SITE URTICARIA",null,"HLT_0196",null,"HLGT_0233",null,"GENERAL DISORDERS AND ADMINISTRATION SITE CONDITIONS",null,1,"No","",3,"NOT RECOVERED/NOT RESOLVED","N","N","N","N","","N","N","N","03-JUL-2014","23-JUN-2014","","Y"],[194,"CDISCPILOT01","701","1317","Y","E16","DEPRESSED MOOD","DEPRESSED MOOD",null,"DEPRESSED MOOD",null,"HLT_0784",null,"HLGT_0122",null,"PSYCHIATRIC DISORDERS",null,1,"No","",3,"NOT RECOVERED/NOT RESOLVED","N","N","N","N","","N","N","N","22-JUL-2014","04-JUL-2014","","Y"],[195,"CDISCPILOT01","701","1317","Y","E16","DEPRESSED MOOD","DEPRESSED MOOD",null,"DEPRESSED MOOD",null,"HLT_0784",null,"HLGT_0122",null,"PSYCHIATRIC DISORDERS",null,2,"No","",3,"NOT RECOVERED/NOT RESOLVED","N","N","N","N","","N","N","N","09-OCT-2014","04-JUL-2014","","Y"],[196,"CDISCPILOT01","701","1317","Y","E17","FATIGUE","TIREDNESS",null,"FATIGUE",null,"HLT_0043",null,"HLGT_0181",null,"GENERAL DISORDERS AND ADMINISTRATION SITE CONDITIONS",null,1,"No","",2,"NOT RECOVERED/NOT RESOLVED","N","N","N","N","","N","N","N","09-OCT-2014","12-SEP-2014","","Y"],[197,"CDISCPILOT01","701","1317","Y","E18","DYSPHONIA","HOARSENESS",null,"DYSPHONIA",null,"HLT_0073",null,"HLGT_0274",null,"RESPIRATORY, THORACIC AND MEDIASTINAL DISORDERS",null,1,"No","",2,"NOT RECOVERED/NOT RESOLVED","N","N","N","N","","N","N","N","06-NOV-2014","03-NOV-2014","","Y"],[198,"CDISCPILOT01","701","1324","Y","E04","APPLICATION SITE ERYTHEMA","APPLICATION SITE ERYTHEMA",null,"APPLICATION SITE ERYTHEMA",null,"HLT_0617",null,"HLGT_0152",null,"GENERAL DISORDERS AND ADMINISTRATION SITE CONDITIONS",null,1,"No","",4,"NOT RECOVERED/NOT RESOLVED","N","N","N","N","","N","N","N","30-OCT-2012","22-OCT-2012","","Y"],[199,"CDISCPILOT01","701","1324","Y","E05","APPLICATION SITE VESICLES","APPLICATION SITE BLISTER",null,"APPLICATION SITE VESICLES",null,"HLT_0180",null,"HLGT_0576",null,"GENERAL DISORDERS AND ADMINISTRATION SITE CONDITIONS",null,1,"No","",4,"NOT RECOVERED/NOT RESOLVED","N","N","N","N","","N","N","N","25-DEC-2012","25-DEC-2012","16-JAN-2013","N"],[200,"CDISCPILOT01","701","1324","Y","E05","APPLICATION SITE VESICLES","APPLICATION SITE BLISTER",null,"APPLICATION SITE VESICLES",null,"HLT_0180",null,"HLGT_0576",null,"GENERAL DISORDERS AND ADMINISTRATION SITE CONDITIONS",null,1,"No","",4,"RECOVERED/RESOLVED","N","N","N","N","","N","N","N","22-JAN-2013","25-DEC-2012","16-JAN-2013","N"],[201,"CDISCPILOT01","701","1324","Y","E06","APPLICATION SITE PRURITUS","APPLICATION SITE ITCHING",null,"APPLICATION SITE PRURITUS",null,"HLT_0317",null,"HLGT_0338",null,"GENERAL DISORDERS AND ADMINISTRATION SITE CONDITIONS",null,1,"No","",4,"NOT RECOVERED/NOT RESOLVED","N","N","N","N","","N","N","N","25-DEC-2012","02-DEC-2012","","Y"],[202,"CDISCPILOT01","701","1341","Y","E09","APPLICATION SITE PRURITUS","APPLICATION SITE ITCHING",null,"APPLICATION SITE PRURITUS",null,"HLT_0317",null,"HLGT_0338",null,"GENERAL DISORDERS AND ADMINISTRATION SITE CONDITIONS",null,2,"No","",4,"NOT RECOVERED/NOT RESOLVED","N","N","N","N","","N","N","N","07-FEB-2013","19-JAN-2013","","Y"],[203,"CDISCPILOT01","701","1341","Y","E10","APPLICATION SITE ERYTHEMA","APPLICATION SITE REDNESS",null,"APPLICATION SITE ERYTHEMA",null,"HLT_0617",null,"HLGT_0152",null,"GENERAL DISORDERS AND ADMINISTRATION SITE CONDITIONS",null,2,"No","",4,"NOT RECOVERED/NOT RESOLVED","N","N","N","N","","N","N","N","07-FEB-2013","19-JAN-2013","","Y"],[204,"CDISCPILOT01","701","1341","Y","E11","APPLICATION SITE PRURITUS","APPLICATION SITE ITCHING",null,"APPLICATION SITE PRURITUS",null,"HLT_0317",null,"HLGT_0338",null,"GENERAL DISORDERS AND ADMINISTRATION SITE CONDITIONS",null,2,"No","",4,"RECOVERED/RESOLVED","N","N","N","N","","N","N","N","07-FEB-2013","26-JAN-2013","30-JAN-2013","N"],[205,"CDISCPILOT01","701","1341","Y","E12","APPLICATION SITE ERYTHEMA","APPLICATION SITE REDNESS",null,"APPLICATION SITE ERYTHEMA",null,"HLT_0617",null,"HLGT_0152",null,"GENERAL DISORDERS AND ADMINISTRATION SITE CONDITIONS",null,2,"No","",4,"NOT RECOVERED/NOT RESOLVED","N","N","N","N","","N","N","N","07-FEB-2013","26-JAN-2013","","Y"],[206,"CDISCPILOT01","701","1341","Y","E13","APPLICATION SITE IRRITATION","APPLICATION SITE BURNING",null,"APPLICATION SITE IRRITATION",null,"HLT_0061",null,"HLGT_0346",null,"GENERAL DISORDERS AND ADMINISTRATION SITE CONDITIONS",null,2,"No","",4,"RECOVERED/RESOLVED","N","N","N","N","","N","N","N","07-FEB-2013","26-JAN-2013","30-JAN-2013","N"],[207,"CDISCPILOT01","701","1345","N","","","",null,"",null,"",null,"",null,"",null,null,"","",null,"","","","","","","","","","","","",""],[208,"CDISCPILOT01","701","1356","N","","","",null,"",null,"",null,"",null,"",null,null,"","",null,"","","","","","","","","","","","",""],[209,"CDISCPILOT01","701","1360","Y","E08","APPLICATION SITE ERYTHEMA","APPLICATION SITE ERYTHEMA",null,"APPLICATION SITE ERYTHEMA",null,"HLT_0617",null,"HLGT_0152",null,"GENERAL DISORDERS AND ADMINISTRATION SITE CONDITIONS",null,2,"No","",4,"NOT RECOVERED/NOT RESOLVED","N","N","N","N","","N","N","N","14-AUG-2013","02-AUG-2013","","Y"],[210,"CDISCPILOT01","701","1360","Y","E09","APPLICATION SITE PRURITUS","APPLICATION SITE ITCHING",null,"APPLICATION SITE PRURITUS",null,"HLT_0317",null,"HLGT_0338",null,"GENERAL DISORDERS AND ADMINISTRATION SITE CONDITIONS",null,2,"No","",4,"NOT RECOVERED/NOT RESOLVED","N","N","N","N","","N","N","N","14-AUG-2013","02-AUG-2013","","Y"],[211,"CDISCPILOT01","701","1360","Y","E10","APPLICATION SITE VESICLES","APPLICATION SITE BLISTER",null,"APPLICATION SITE VESICLES",null,"HLT_0180",null,"HLGT_0576",null,"GENERAL DISORDERS AND ADMINISTRATION SITE CONDITIONS",null,2,"No","",4,"NOT RECOVERED/NOT RESOLVED","N","N","N","N","","N","N","N","14-AUG-2013","05-AUG-2013","","Y"],[212,"CDISCPILOT01","701","1363","Y","E03","HEADACHE","HEADACHE",null,"HEADACHE",null,"HLT_0064",null,"HLGT_0344",null,"NERVOUS SYSTEM DISORDERS",null,2,"No","",3,"NOT RECOVERED/NOT RESOLVED","N","N","N","N","","N","N","N","24-JUL-2013","1986","","Y"],[213,"CDISCPILOT01","701","1363","Y","E03","HEADACHE","HEADACHE",null,"HEADACHE",null,"HLT_0064",null,"HLGT_0344",null,"NERVOUS SYSTEM DISORDERS",null,1,"No","",3,"NOT RECOVERED/NOT RESOLVED","N","N","N","N","","N","N","N","14-OCT-2013","1986","","Y"],[214,"CDISCPILOT01","701","1363","Y","E09","NAUSEA","NAUSEA",null,"NAUSEA",null,"HLT_0742",null,"HLGT_0326",null,"GASTROINTESTINAL DISORDERS",null,1,"No","",2,"RECOVERED/RESOLVED","N","N","N","N","","N","N","N","25-JUN-2013","14-JUN-2013","15-JUN-2013","N"],[215,"CDISCPILOT01","701","1363","Y","E11","APPLICATION SITE PRURITUS","APPLICATION SITE ITCHING",null,"APPLICATION SITE PRURITUS",null,"HLT_0317",null,"HLGT_0338",null,"GENERAL DISORDERS AND ADMINISTRATION SITE CONDITIONS",null,1,"No","",4,"NOT RECOVERED/NOT RESOLVED","N","N","N","N","","N","N","N","24-JUL-2013","16-JUL-2013","","Y"],[216,"CDISCPILOT01","701","1363","Y","E13","BACK PAIN","BACKACHE",null,"BACK PAIN",null,"HLT_0115",null,"HLGT_0508",null,"MUSCULOSKELETAL AND CONNECTIVE TISSUE DISORDERS",null,1,"No","",1,"NOT RECOVERED/NOT RESOLVED","N","N","N","N","","N","N","N","14-OCT-2013","13-OCT-2013","15-OCT-2013","N"],[217,"CDISCPILOT01","701","1363","Y","E13","BACK PAIN","BACKACHE",null,"BACK PAIN",null,"HLT_0115",null,"HLGT_0508",null,"MUSCULOSKELETAL AND CONNECTIVE TISSUE DISORDERS",null,1,"No","",1,"RECOVERED/RESOLVED","N","N","N","N","","N","N","N","13-NOV-2013","13-OCT-2013","15-OCT-2013","N"],[218,"CDISCPILOT01","701","1369","N","","","",null,"",null,"",null,"",null,"",null,null,"","",null,"","","","","","","","","","","","",""],[219,"CDISCPILOT01","701","1383","Y","E04","APPLICATION SITE PRURITUS","APPLICATION SITE ITCHING",null,"APPLICATION SITE PRURITUS",null,"HLT_0317",null,"HLGT_0338",null,"GENERAL DISORDERS AND ADMINISTRATION SITE CONDITIONS",null,1,"No","",4,"RECOVERED/RESOLVED","N","N","N","N","","N","N","N","19-FEB-2013","07-FEB-2013","07-FEB-2013","N"],[220,"CDISCPILOT01","701","1383","Y","E05","APPLICATION SITE PAIN","APPLICATION SITE PAIN",null,"APPLICATION SITE PAIN",null,"HLT_0342",null,"HLGT_0085",null,"GENERAL DISORDERS AND ADMINISTRATION SITE CONDITIONS",null,1,"No","",4,"RECOVERED/RESOLVED","N","N","N","N","","N","N","N","19-FEB-2013","07-FEB-2013","07-FEB-2013","N"],[221,"CDISCPILOT01","701","1383","Y","E06","APPLICATION SITE ERYTHEMA","APPLICATION SITE ERYTHEMA",null,"APPLICATION SITE ERYTHEMA",null,"HLT_0617",null,"HLGT_0152",null,"GENERAL DISORDERS AND ADMINISTRATION SITE CONDITIONS",null,1,"No","",3,"RECOVERED/RESOLVED","N","N","N","N","","N","N","N","02-APR-2013","23-MAR-2013","26-MAR-2013","N"],[222,"CDISCPILOT01","701","1383","Y","E07","APPLICATION SITE PRURITUS","APPLICATION SITE ITCHING",null,"APPLICATION SITE PRURITUS",null,"HLT_0317",null,"HLGT_0338",null,"GENERAL DISORDERS AND ADMINISTRATION SITE CONDITIONS",null,1,"No","",3,"NOT RECOVERED/NOT RESOLVED","N","N","N","N","","N","N","N","02-APR-2013","23-MAR-2013","","Y"],[223,"CDISCPILOT01","701","1383","Y","E07","APPLICATION SITE PRURITUS","APPLICATION SITE ITCHING",null,"APPLICATION SITE PRURITUS",null,"HLT_0317",null,"HLGT_0338",null,"GENERAL DISORDERS AND ADMINISTRATION SITE CONDITIONS",null,2,"No","",3,"NOT RECOVERED/NOT RESOLVED","N","N","N","N","","N","N","N","30-MAY-2013","23-MAR-2013","","Y"],[224,"CDISCPILOT01","701","1383","Y","E08","APPLICATION SITE ERYTHEMA","APPLICATION SITE ERYTHEMA",null,"APPLICATION SITE ERYTHEMA",null,"HLT_0617",null,"HLGT_0152",null,"GENERAL DISORDERS AND ADMINISTRATION SITE CONDITIONS",null,1,"No","",3,"NOT RECOVERED/NOT RESOLVED","N","N","N","N","","N","N","N","30-APR-2013","12-APR-2013","","Y"],[225,"CDISCPILOT01","701","1383","Y","E09","APPLICATION SITE IRRITATION","APPLICATION SITE BURNING",null,"APPLICATION SITE IRRITATION",null,"HLT_0061",null,"HLGT_0346",null,"GENERAL DISORDERS AND ADMINISTRATION SITE CONDITIONS",null,1,"No","",3,"NOT RECOVERED/NOT RESOLVED","N","N","N","N","","N","N","N","30-APR-2013","12-APR-2013","","Y"],[226,"CDISCPILOT01","701","1383","Y","E09","APPLICATION SITE IRRITATION","APPLICATION SITE BURNING",null,"APPLICATION SITE IRRITATION",null,"HLT_0061",null,"HLGT_0346",null,"GENERAL DISORDERS AND ADMINISTRATION SITE CONDITIONS",null,2,"No","",3,"NOT RECOVERED/NOT RESOLVED","N","N","N","N","","N","N","N","30-MAY-2013","12-APR-2013","","Y"],[227,"CDISCPILOT01","701","1383","Y","E10","APPLICATION SITE VESICLES","APPLICATION SITE BLISTER",null,"APPLICATION SITE VESICLES",null,"HLT_0180",null,"HLGT_0576",null,"GENERAL DISORDERS AND ADMINISTRATION SITE CONDITIONS",null,1,"No","",3,"RECOVERED/RESOLVED","N","N","N","N","","N","N","N","30-MAY-2013","07-MAY-2013","24-MAY-2013","N"],[228,"CDISCPILOT01","701","1383","Y","E11","CHEST DISCOMFORT","CHEST PRESSURE",null,"CHEST DISCOMFORT",null,"HLT_0593",null,"HLGT_0441",null,"GENERAL DISORDERS AND ADMINISTRATION SITE CONDITIONS",null,1,"No","",1,"RECOVERED/RESOLVED","N","N","N","N","","N","N","N","25-JUN-2013","24-JUN-2013","24-JUN-2013","N"],[229,"CDISCPILOT01","701","1383","Y","E12","HEADACHE","FULLNESS HEAD",null,"HEADACHE",null,"HLT_0064",null,"HLGT_0344",null,"NERVOUS SYSTEM DISORDERS",null,1,"No","",1,"RECOVERED/RESOLVED","N","N","N","N","","N","N","N","25-JUN-2013","24-JUN-2013","24-JUN-2013","N"],[230,"CDISCPILOT01","701","1383","Y","E13","COUGH","COUGH",null,"COUGH",null,"HLT_0701",null,"HLGT_0280",null,"RESPIRATORY, THORACIC AND MEDIASTINAL DISORDERS",null,2,"No","",1,"RECOVERED/RESOLVED","N","N","N","N","","N","N","N","30-JUL-2013","17-JUL-2013","26-JUL-2013","N"],[231,"CDISCPILOT01","701","1386","N","","","",null,"",null,"",null,"",null,"",null,null,"","",null,"","","","","","","","","","","","",""],[232,"CDISCPILOT01","701","1387","Y","E08","DIARRHOEA","DIARRHEA",null,"DIARRHOEA",null,"HLT_0148",null,"HLGT_0588",null,"GASTROINTESTINAL DISORDERS",null,1,"No","",2,"RECOVERED/RESOLVED","N","N","N","N","","N","N","N","25-MAR-2014","18-MAR-2014","18-MAR-2014","N"],[233,"CDISCPILOT01","701","1387","Y","E09","HYPERHIDROSIS","SWEATING",null,"HYPERHIDROSIS",null,"HLT_0587",null,"HLGT_0005",null,"SKIN AND SUBCUTANEOUS TISSUE DISORDERS",null,1,"No","",2,"RECOVERED/RESOLVED","N","N","N","N","","N","N","N","25-MAR-2014","18-MAR-2014","18-MAR-2014","N"],[234,"CDISCPILOT01","701","1392","Y","E04","UPPER RESPIRATORY TRACT INFECTION","UPPER RESPIRATORY INFECTION",null,"UPPER RESPIRATORY TRACT INFECTION",null,"HLT_0520",null,"HLGT_0489",null,"INFECTIONS AND INFESTATIONS",null,1,"No","",2,"NOT RECOVERED/NOT RESOLVED","N","N","N","N","","N","N","N","17-MAR-2013","16-MAR-2013","21-MAR-2013","N"],[235,"CDISCPILOT01","701","1392","Y","E04","UPPER RESPIRATORY TRACT INFECTION","UPPER RESPIRATORY INFECTION",null,"UPPER RESPIRATORY TRACT INFECTION",null,"HLT_0520",null,"HLGT_0489",null,"INFECTIONS AND INFESTATIONS",null,1,"No","",2,"RECOVERED/RESOLVED","N","N","N","N","","N","N","N","15-APR-2013","16-MAR-2013","21-MAR-2013","N"],[236,"CDISCPILOT01","701","1411","N","","","",null,"",null,"",null,"",null,"",null,null,"","",null,"","","","","","","","","","","","",""],[237,"CDISCPILOT01","701","1415","Y","E09","UPPER RESPIRATORY TRACT INFECTION","UPPER RESPIRATORY INFECTION",null,"UPPER RESPIRATORY TRACT INFECTION",null,"HLT_0520",null,"HLGT_0489",null,"INFECTIONS AND INFESTATIONS",null,1,"No","",1,"NOT RECOVERED/NOT RESOLVED","N","N","N","N","","N","N","N","22-OCT-2013","21-OCT-2013","04-NOV-2013","N"],[238,"CDISCPILOT01","701","1415","Y","E09","UPPER RESPIRATORY TRACT INFECTION","UPPER RESPIRATORY INFECTION",null,"UPPER RESPIRATORY TRACT INFECTION",null,"HLT_0520",null,"HLGT_0489",null,"INFECTIONS AND INFESTATIONS",null,1,"No","",1,"RECOVERED/RESOLVED","N","N","N","N","","N","N","N","21-NOV-2013","21-OCT-2013","04-NOV-2013","N"],[239,"CDISCPILOT01","701","1415","Y","E10","MICTURITION URGENCY","URINARY URGENCY",null,"MICTURITION URGENCY",null,"HLT_0294",null,"HLGT_0483",null,"RENAL AND URINARY DISORDERS",null,1,"No","",1,"NOT RECOVERED/NOT RESOLVED","N","N","N","N","","N","N","N","21-DEC-2013","02-DEC-2013","","Y"],[240,"CDISCPILOT01","701","1415","Y","E11","UPPER RESPIRATORY TRACT INFECTION","UPPER RESPIRATORY INFECTION",null,"UPPER RESPIRATORY TRACT INFECTION",null,"HLT_0520",null,"HLGT_0489",null,"INFECTIONS AND INFESTATIONS",null,1,"No","",2,"NOT RECOVERED/NOT RESOLVED","N","N","N","N","","N","N","N","10-FEB-2014","21-JAN-2014","10-FEB-2014","N"],[241,"CDISCPILOT01","701","1415","Y","E11","UPPER RESPIRATORY TRACT INFECTION","UPPER RESPIRATORY INFECTION",null,"UPPER RESPIRATORY TRACT INFECTION",null,"HLT_0520",null,"HLGT_0489",null,"INFECTIONS AND INFESTATIONS",null,1,"No","",2,"RECOVERED/RESOLVED","N","N","N","N","","N","N","N","10-MAR-2014","21-JAN-2014","10-FEB-2014","N"],[242,"CDISCPILOT01","701","1415","Y","E12","DIARRHOEA","DIARRHEA",null,"DIARRHOEA",null,"HLT_0148",null,"HLGT_0588",null,"GASTROINTESTINAL DISORDERS",null,1,"No","",1,"RECOVERED/RESOLVED","N","N","N","N","","N","N","N","10-MAR-2014","09-MAR-2014","09-MAR-2014","N"],[243,"CDISCPILOT01","701","1429","N","","","",null,"",null,"",null,"",null,"",null,null,"","",null,"","","","","","","","","","","","",""],[244,"CDISCPILOT01","701","1440","N","","","",null,"",null,"",null,"",null,"",null,null,"","",null,"","","","","","","","","","","","",""],[245,"CDISCPILOT01","701","1442","Y","E03","APPLICATION SITE PRURITUS","APPLICATION SITE ITCHING",null,"APPLICATION SITE PRURITUS",null,"HLT_0317",null,"HLGT_0338",null,"GENERAL DISORDERS AND ADMINISTRATION SITE CONDITIONS",null,1,"No","",4,"NOT RECOVERED/NOT RESOLVED","N","N","N","N","","N","N","N","18-JAN-2014","10-JAN-2014","","Y"],[246,"CDISCPILOT01","701","1444","Y","E11","APPLICATION SITE ERYTHEMA","APPLICATION SITE ERYTHEMA",null,"APPLICATION SITE ERYTHEMA",null,"HLT_0617",null,"HLGT_0152",null,"GENERAL DISORDERS AND ADMINISTRATION SITE CONDITIONS",null,1,"No","",3,"NOT RECOVERED/NOT RESOLVED","N","N","N","N","","N","N","N","31-JAN-2013","19-JAN-2013","","Y"],[247,"CDISCPILOT01","701","1444","Y","E11","APPLICATION SITE ERYTHEMA","APPLICATION SITE ERYTHEMA",null,"APPLICATION SITE ERYTHEMA",null,"HLT_0617",null,"HLGT_0152",null,"GENERAL DISORDERS AND ADMINISTRATION SITE CONDITIONS",null,2,"No","",3,"NOT RECOVERED/NOT RESOLVED","N","N","N","N","","N","N","N","13-FEB-2013","19-JAN-2013","","Y"],[248,"CDISCPILOT01","701","1444","Y","E12","APPLICATION SITE PRURITUS","APPLICATION SITE ITCHING",null,"APPLICATION SITE PRURITUS",null,"HLT_0317",null,"HLGT_0338",null,"GENERAL DISORDERS AND ADMINISTRATION SITE CONDITIONS",null,1,"No","",4,"NOT RECOVERED/NOT RESOLVED","N","N","N","N","","N","N","N","31-JAN-2013","19-JAN-2013","","Y"],[249,"CDISCPILOT01","701","1444","Y","E12","APPLICATION SITE PRURITUS","APPLICATION SITE ITCHING",null,"APPLICATION SITE PRURITUS",null,"HLT_0317",null,"HLGT_0338",null,"GENERAL DISORDERS AND ADMINISTRATION SITE CONDITIONS",null,2,"No","",4,"NOT RECOVERED/NOT RESOLVED","N","N","N","N","","N","N","N","13-FEB-2013","19-JAN-2013","","Y"],[250,"CDISCPILOT01","701","1444","Y","E13","SALIVARY HYPERSECRETION","HYPERSALIVATION",null,"SALIVARY HYPERSECRETION",null,"HLT_0374",null,"HLGT_0488",null,"GASTROINTESTINAL DISORDERS",null,1,"No","",3,"NOT RECOVERED/NOT RESOLVED","N","N","N","N","","N","N","N","31-JAN-2013","19-JAN-2013","","Y"],[251,"CDISCPILOT01","701","1444","Y","E14","PARAESTHESIA","TINGLING",null,"PARAESTHESIA",null,"HLT_0481",null,"HLGT_0534",null,"NERVOUS SYSTEM DISORDERS",null,1,"No","",1,"RECOVERED/RESOLVED","N","N","N","N","","N","N","N","13-FEB-2013","08-FEB-2013","08-FEB-2013","N"],[252,"CDISCPILOT01","701","1444","Y","E15","APPLICATION SITE IRRITATION","APPLICATION SITE BURNING",null,"APPLICATION SITE IRRITATION",null,"HLT_0061",null,"HLGT_0346",null,"GENERAL DISORDERS AND ADMINISTRATION SITE CONDITIONS",null,2,"No","",4,"NOT RECOVERED/NOT RESOLVED","N","N","N","N","","N","N","N","13-FEB-2013","04-FEB-2013","","Y"],[253,"CDISCPILOT01","701","1444","Y","E16","APPLICATION SITE VESICLES","APPLICATION SITE BLISTER",null,"APPLICATION SITE VESICLES",null,"HLT_0180",null,"HLGT_0576",null,"GENERAL DISORDERS AND ADMINISTRATION SITE CONDITIONS",null,2,"No","",4,"NOT RECOVERED/NOT RESOLVED","N","N","N","N","","N","N","N","13-FEB-2013","04-FEB-2013","","Y"],[254,"CDISCPILOT01","702","1082","Y","E02","WHITE BLOOD CELL COUNT INCREASED","WBC INCREASED",null,"WHITE BLOOD CELL COUNT INCREASED",null,"HLT_0417",null,"HLGT_0465",null,"INVESTIGATIONS",null,1,"No","",1,"NOT RECOVERED/NOT RESOLVED","N","N","N","N","","N","N","N","24-JUL-2013","07-JUL-2013","26-JUL-2013","N"],[255,"CDISCPILOT01","702","1082","Y","E02","WHITE BLOOD CELL COUNT INCREASED","WBC INCREASED",null,"WHITE BLOOD CELL COUNT INCREASED",null,"HLT_0417",null,"HLGT_0465",null,"INVESTIGATIONS",null,1,"No","",1,"RECOVERED/RESOLVED","N","N","N","N","","N","N","N","08-AUG-2013","07-JUL-2013","26-JUL-2013","N"],[256,"CDISCPILOT01","702","1082","Y","E03","NEUTROPHIL COUNT INCREASED","NEUTROPHIL COUNT INCREASED",null,"NEUTROPHIL COUNT INCREASED",null,"HLT_0326",null,"HLGT_0625",null,"INVESTIGATIONS",null,1,"No","",1,"NOT RECOVERED/NOT RESOLVED","N","N","N","N","","N","N","N","24-JUL-2013","07-JUL-2013","26-JUL-2013","N"],[257,"CDISCPILOT01","702","1082","Y","E03","NEUTROPHIL COUNT INCREASED","NEUTROPHIL COUNT INCREASED",null,"NEUTROPHIL COUNT INCREASED",null,"HLT_0326",null,"HLGT_0625",null,"INVESTIGATIONS",null,1,"No","",1,"RECOVERED/RESOLVED","N","N","N","N","","N","N","N","08-AUG-2013","07-JUL-2013","26-JUL-2013","N"],[258,"CDISCPILOT01","702","1082","Y","E04","URINE ANALYSIS ABNORMAL","URINE ANALYSIS ABNORMAL",null,"URINE ANALYSIS ABNORMAL",null,"HLT_0783",null,"HLGT_0295",null,"INVESTIGATIONS",null,1,"No","",1,"NOT RECOVERED/NOT RESOLVED","N","N","N","N","","N","N","N","24-JUL-2013","07-JUL-2013","24-JUL-2013","N"],[259,"CDISCPILOT01","702","1082","Y","E04","URINE ANALYSIS ABNORMAL","URINE ANALYSIS ABNORMAL",null,"URINE ANALYSIS ABNORMAL",null,"HLT_0783",null,"HLGT_0295",null,"INVESTIGATIONS",null,1,"No","",1,"RECOVERED/RESOLVED","N","N","N","N","","N","N","N","26-JUL-2013","07-JUL-2013","24-JUL-2013","N"],[260,"CDISCPILOT01","702","1082","Y","E06","RECTAL HAEMORRHAGE","RECTAL BLEEDING",null,"RECTAL HAEMORRHAGE",null,"HLT_0353",null,"HLGT_0755",null,"GASTROINTESTINAL DISORDERS",null,1,"No","",1,"NOT RECOVERED/NOT RESOLVED","N","N","N","N","","N","N","N","06-SEP-2013","02-SEP-2013","06-SEP-2013","N"],[261,"CDISCPILOT01","702","1082","Y","E06","RECTAL HAEMORRHAGE","RECTAL BLEEDING",null,"RECTAL HAEMORRHAGE",null,"HLT_0353",null,"HLGT_0755",null,"GASTROINTESTINAL DISORDERS",null,1,"No","",1,"RECOVERED/RESOLVED","N","N","N","N","","N","N","N","28-SEP-2013","02-SEP-2013","06-SEP-2013","N"],[262,"CDISCPILOT01","702","1082","Y","E07","APPLICATION SITE IRRITATION","APPLICATION SITE IRRITATION",null,"APPLICATION SITE IRRITATION",null,"HLT_0061",null,"HLGT_0346",null,"GENERAL DISORDERS AND ADMINISTRATION SITE CONDITIONS",null,1,"No","",4,"RECOVERED/RESOLVED","N","N","N","N","","N","N","N","28-SEP-2013","09-SEP-2013","24-SEP-2013","N"],[263,"CDISCPILOT01","702","1082","Y","E08","SKIN IRRITATION","SKIN IRRITATION",null,"SKIN IRRITATION",null,"HLT_0583",null,"HLGT_0384",null,"SKIN AND SUBCUTANEOUS TISSUE DISORDERS",null,2,"No","",4,"RECOVERED/RESOLVED","N","N","N","N","","N","N","N","17-NOV-2013","12-OCT-2013","31-OCT-2013","N"],[264,"CDISCPILOT01","703","1042","Y","E04","DIARRHOEA","DIARRHEA",null,"DIARRHOEA",null,"HLT_0148",null,"HLGT_0588",null,"GASTROINTESTINAL DISORDERS",null,1,"No","",3,"RECOVERED/RESOLVED","N","N","N","N","","N","N","N","14-MAR-2013","04-MAR-2013","05-MAR-2013","N"],[265,"CDISCPILOT01","703","1042","Y","E05","INSOMNIA","INSOMNIA",null,"INSOMNIA",null,"HLT_0297",null,"HLGT_0469",null,"PSYCHIATRIC DISORDERS",null,1,"No","",2,"RECOVERED/RESOLVED","N","N","N","N","","N","N","N","14-MAR-2013","05-MAR-2013","06-MAR-2013","N"],[266,"CDISCPILOT01","703","1076","Y","E01","BENIGN PROSTATIC HYPERPLASIA","BENIGN PROSTATIC HYPERTROPHY",null,"BENIGN PROSTATIC HYPERPLASIA",null,"HLT_0215",null,"HLGT_0568",null,"REPRODUCTIVE SYSTEM AND BREAST DISORDERS",null,2,"No","",1,"NOT RECOVERED/NOT RESOLVED","N","N","N","N","","N","N","N","20-NOV-2013","20-NOV-2013","","Y"],[267,"CDISCPILOT01","703","1076","Y","E02","BIOPSY PROSTATE","BIOPSY OF PROSTATE",null,"BIOPSY PROSTATE",null,"HLT_0553",null,"HLGT_0725",null,"INVESTIGATIONS",null,2,"No","",1,"RECOVERED/RESOLVED","N","N","N","N","","N","N","N","20-NOV-2013","16-NOV-2013","16-NOV-2013","N"],[268,"CDISCPILOT01","703","1076","Y","E05","HYPERCHOLESTEROLAEMIA","HYPERCHOLESTEROLEMIA",null,"HYPERCHOLESTEROLAEMIA",null,"HLT_0025",null,"HLGT_0703",null,"METABOLISM AND NUTRITION DISORDERS",null,2,"No","",1,"NOT RECOVERED/NOT RESOLVED","N","N","N","N","","N","N","N","04-DEC-2013","2007","","Y"],[269,"CDISCPILOT01","703","1076","Y","E07","HYPERHIDROSIS","SWEATING",null,"HYPERHIDROSIS",null,"HLT_0587",null,"HLGT_0005",null,"SKIN AND SUBCUTANEOUS TISSUE DISORDERS",null,1,"No","",3,"NOT RECOVERED/NOT RESOLVED","N","N","N","N","","N","N","N","04-DEC-2013","25-NOV-2013","","Y"],[270,"CDISCPILOT01","703","1076","Y","E08","APPLICATION SITE PRURITUS","APPLICATION SITE ITCHING",null,"APPLICATION SITE PRURITUS",null,"HLT_0317",null,"HLGT_0338",null,"GENERAL DISORDERS AND ADMINISTRATION SITE CONDITIONS",null,1,"No","",4,"NOT RECOVERED/NOT RESOLVED","N","N","N","N","","N","N","N","04-DEC-2013","23-NOV-2013","","Y"],[271,"CDISCPILOT01","703","1076","Y","E08","APPLICATION SITE PRURITUS","APPLICATION SITE ITCHING",null,"APPLICATION SITE PRURITUS",null,"HLT_0317",null,"HLGT_0338",null,"GENERAL DISORDERS AND ADMINISTRATION SITE CONDITIONS",null,2,"No","",4,"NOT RECOVERED/NOT RESOLVED","N","N","N","N","","N","N","N","17-DEC-2013","23-NOV-2013","","Y"],[272,"CDISCPILOT01","703","1076","Y","E09","APPLICATION SITE DERMATITIS","APPLICATION SITE RASH",null,"APPLICATION SITE DERMATITIS",null,"HLT_0343",null,"HLGT_0241",null,"GENERAL DISORDERS AND ADMINISTRATION SITE CONDITIONS",null,1,"No","",4,"NOT RECOVERED/NOT RESOLVED","N","N","N","N","","N","N","N","04-DEC-2013","23-NOV-2013","","Y"],[273,"CDISCPILOT01","703","1086","Y","E01","APPLICATION SITE IRRITATION","APPLICATION SITE IRRITATION",null,"APPLICATION SITE IRRITATION",null,"HLT_0061",null,"HLGT_0346",null,"GENERAL DISORDERS AND ADMINISTRATION SITE CONDITIONS",null,1,"No","",4,"NOT RECOVERED/NOT RESOLVED","N","N","N","N","","N","N","N","16-SEP-2012","13-SEP-2012","02-JAN-2013","N"],[274,"CDISCPILOT01","703","1086","Y","E01","APPLICATION SITE IRRITATION","APPLICATION SITE IRRITATION",null,"APPLICATION SITE IRRITATION",null,"HLT_0061",null,"HLGT_0346",null,"GENERAL DISORDERS AND ADMINISTRATION SITE CONDITIONS",null,2,"No","",4,"NOT RECOVERED/NOT RESOLVED","N","N","N","N","","N","N","N","30-SEP-2012","13-SEP-2012","02-JAN-2013","N"],[275,"CDISCPILOT01","703","1086","Y","E01","APPLICATION SITE IRRITATION","APPLICATION SITE IRRITATION",null,"APPLICATION SITE IRRITATION",null,"HLT_0061",null,"HLGT_0346",null,"GENERAL DISORDERS AND ADMINISTRATION SITE CONDITIONS",null,3,"No","",4,"NOT RECOVERED/NOT RESOLVED","N","N","N","N","","N","N","N","13-OCT-2012","13-SEP-2012","02-JAN-2013","N"],[276,"CDISCPILOT01","703","1086","Y","E01","APPLICATION SITE IRRITATION","APPLICATION SITE IRRITATION",null,"APPLICATION SITE IRRITATION",null,"HLT_0061",null,"HLGT_0346",null,"GENERAL DISORDERS AND ADMINISTRATION SITE CONDITIONS",null,1,"No","",4,"RECOVERED/RESOLVED","N","N","N","N","","N","N","N","26-MAR-2013","13-SEP-2012","02-JAN-2013","N"],[277,"CDISCPILOT01","703","1086","Y","E02","CHILLS","CHILLS",null,"CHILLS",null,"HLT_0586",null,"HLGT_0161",null,"GENERAL DISORDERS AND ADMINISTRATION SITE CONDITIONS",null,1,"No","",3,"NOT RECOVERED/NOT RESOLVED","N","N","N","N","","N","N","N","13-OCT-2012","09-OCT-2012","15-OCT-2012","N"],[278,"CDISCPILOT01","703","1086","Y","E02","CHILLS","CHILLS",null,"CHILLS",null,"HLT_0586",null,"HLGT_0161",null,"GENERAL DISORDERS AND ADMINISTRATION SITE CONDITIONS",null,1,"No","",3,"RECOVERED/RESOLVED","N","N","N","N","","N","N","N","27-OCT-2012","09-OCT-2012","15-OCT-2012","N"],[279,"CDISCPILOT01","703","1096","N","","","",null,"",null,"",null,"",null,"",null,null,"","",null,"","","","","","","","","","","","",""],[280,"CDISCPILOT01","703","1100","Y","E04","APPLICATION SITE IRRITATION","APPLICATION SITE IRRITATION",null,"APPLICATION SITE IRRITATION",null,"HLT_0061",null,"HLGT_0346",null,"GENERAL DISORDERS AND ADMINISTRATION SITE CONDITIONS",null,2,"No","",4,"NOT RECOVERED/NOT RESOLVED","N","N","N","N","","N","N","N","12-APR-2013","05-APR-2013","16-APR-2013","N"],[281,"CDISCPILOT01","703","1100","Y","E04","APPLICATION SITE IRRITATION","APPLICATION SITE IRRITATION",null,"APPLICATION SITE IRRITATION",null,"HLT_0061",null,"HLGT_0346",null,"GENERAL DISORDERS AND ADMINISTRATION SITE CONDITIONS",null,1,"No","",4,"NOT RECOVERED/NOT RESOLVED","N","N","N","N","","N","N","N","14-APR-2013","05-APR-2013","16-APR-2013","N"],[282,"CDISCPILOT01","703","1100","Y","E04","APPLICATION SITE IRRITATION","APPLICATION SITE IRRITATION",null,"APPLICATION SITE IRRITATION",null,"HLT_0061",null,"HLGT_0346",null,"GENERAL DISORDERS AND ADMINISTRATION SITE CONDITIONS",null,1,"No","",4,"RECOVERED/RESOLVED","N","N","N","N","","N","N","N","24-APR-2013","05-APR-2013","16-APR-2013","N"],[283,"CDISCPILOT01","703","1100","Y","E06","CATARACT OPERATION","CATARACT EXTRACTION",null,"CATARACT OPERATION",null,"HLT_0432",null,"HLGT_0058",null,"SURGICAL AND MEDICAL PROCEDURES",null,2,"No","",1,"RECOVERED/RESOLVED","N","N","N","N","","N","N","N","08-MAY-2013","25-APR-2013","25-APR-2013","N"],[284,"CDISCPILOT01","703","1100","Y","E07","OEDEMA PERIPHERAL","LEG EDEMA",null,"OEDEMA PERIPHERAL",null,"HLT_0661",null,"HLGT_0137",null,"GENERAL DISORDERS AND ADMINISTRATION SITE CONDITIONS",null,2,"No","",2,"NOT RECOVERED/NOT RESOLVED","N","N","N","N","","N","N","N","31-JUL-2013","28-FEB-2013","14-SEP-2013","N"],[285,"CDISCPILOT01","703","1100","Y","E07","OEDEMA PERIPHERAL","LEG EDEMA",null,"OEDEMA PERIPHERAL",null,"HLT_0661",null,"HLGT_0137",null,"GENERAL DISORDERS AND ADMINISTRATION SITE CONDITIONS",null,2,"No","",2,"RECOVERED/RESOLVED","N","N","N","N","","N","N","N","14-SEP-2013","28-FEB-2013","14-SEP-2013","N"],[286,"CDISCPILOT01","703","1100","Y","E08","UPPER RESPIRATORY TRACT INFECTION","UPPER RESPIRATORY INFECTION",null,"UPPER RESPIRATORY TRACT INFECTION",null,"HLT_0520",null,"HLGT_0489",null,"INFECTIONS AND INFESTATIONS",null,2,"No","",2,"RECOVERED/RESOLVED","N","N","N","N","","N","N","N","05-JUN-2013","27-MAY-2013","03-JUN-2013","N"],[287,"CDISCPILOT01","703","1100","Y","E09","OEDEMA PERIPHERAL","LEG EDEMA",null,"OEDEMA PERIPHERAL",null,"HLT_0661",null,"HLGT_0137",null,"GENERAL DISORDERS AND ADMINISTRATION SITE CONDITIONS",null,1,"No","",2,"NOT RECOVERED/NOT RESOLVED","N","N","N","N","","N","N","N","31-JUL-2013","17-JUL-2013","14-SEP-2013","N"],[288,"CDISCPILOT01","703","1100","Y","E09","OEDEMA PERIPHERAL","LEG EDEMA",null,"OEDEMA PERIPHERAL",null,"HLT_0661",null,"HLGT_0137",null,"GENERAL DISORDERS AND ADMINISTRATION SITE CONDITIONS",null,1,"No","",2,"RECOVERED/RESOLVED","N","N","N","N","","N","N","N","14-SEP-2013","17-JUL-2013","14-SEP-2013","N"],[289,"CDISCPILOT01","703","1119","Y","E04","APPLICATION SITE IRRITATION","APPLICATION SITE IRRITATION",null,"APPLICATION SITE IRRITATION",null,"HLT_0061",null,"HLGT_0346",null,"GENERAL DISORDERS AND ADMINISTRATION SITE CONDITIONS",null,2,"No","",4,"NOT RECOVERED/NOT RESOLVED","N","N","N","N","","N","N","N","21-MAR-2013","16-MAR-2013","","Y"],[290,"CDISCPILOT01","703","1119","Y","E04","APPLICATION SITE IRRITATION","APPLICATION SITE IRRITATION",null,"APPLICATION SITE IRRITATION",null,"HLT_0061",null,"HLGT_0346",null,"GENERAL DISORDERS AND ADMINISTRATION SITE CONDITIONS",null,3,"No","",4,"NOT RECOVERED/NOT RESOLVED","N","N","N","N","","N","N","N","17-MAY-2013","16-MAR-2013","","Y"],[291,"CDISCPILOT01","703","1119","Y","E05","PRURITUS","ITCHING",null,"PRURITUS",null,"HLT_0778",null,"HLGT_0695",null,"SKIN AND SUBCUTANEOUS TISSUE DISORDERS",null,2,"No","",4,"NOT RECOVERED/NOT RESOLVED","N","N","N","N","","N","N","N","17-MAY-2013","04-MAY-2013","","Y"],[292,"CDISCPILOT01","703","1119","Y","E05","PRURITUS","ITCHING",null,"PRURITUS",null,"HLT_0778",null,"HLGT_0695",null,"SKIN AND SUBCUTANEOUS TISSUE DISORDERS",null,3,"No","",4,"NOT RECOVERED/NOT RESOLVED","N","N","N","N","","N","N","N","13-JUN-2013","04-MAY-2013","","Y"],[293,"CDISCPILOT01","703","1175","Y","E01","ATRIOVENTRICULAR BLOCK SECOND DEGREE","HEART BLOCK SECOND DEGREE",null,"ATRIOVENTRICULAR BLOCK SECOND DEGREE",null,"HLT_0415",null,"HLGT_0086",null,"CARDIAC DISORDERS",null,3,"No","",1,"NOT RECOVERED/NOT RESOLVED","N","N","N","N","","N","N","N","18-DEC-2013","18-DEC-2013","","Y"],[294,"CDISCPILOT01","703","1182","Y","E05","APPLICATION SITE ERYTHEMA","APPLICATION SITE REDNESS",null,"APPLICATION SITE ERYTHEMA",null,"HLT_0617",null,"HLGT_0152",null,"GENERAL DISORDERS AND ADMINISTRATION SITE CONDITIONS",null,1,"No","",3,"NOT RECOVERED/NOT RESOLVED","N","N","N","N","","N","N","N","31-OCT-2013","31-OCT-2013","","Y"],[295,"CDISCPILOT01","703","1182","Y","E05","APPLICATION SITE ERYTHEMA","APPLICATION SITE REDNESS",null,"APPLICATION SITE ERYTHEMA",null,"HLT_0617",null,"HLGT_0152",null,"GENERAL DISORDERS AND ADMINISTRATION SITE CONDITIONS",null,2,"No","",3,"NOT RECOVERED/NOT RESOLVED","N","N","N","N","","N","N","N","28-NOV-2013","31-OCT-2013","","Y"],[296,"CDISCPILOT01","703","1182","Y","E07","SOMNOLENCE","DROWSINESS",null,"SOMNOLENCE",null,"HLT_0160",null,"HLGT_0254",null,"NERVOUS SYSTEM DISORDERS",null,1,"No","",2,"NOT RECOVERED/NOT RESOLVED","N","N","N","N","","N","N","N","28-NOV-2013","22-NOV-2013","","Y"],[297,"CDISCPILOT01","703","1182","Y","E07","SOMNOLENCE","DROWSINESS",null,"SOMNOLENCE",null,"HLT_0160",null,"HLGT_0254",null,"NERVOUS SYSTEM DISORDERS",null,2,"No","",2,"NOT RECOVERED/NOT RESOLVED","N","N","N","N","","N","N","N","12-DEC-2013","22-NOV-2013","","Y"],[298,"CDISCPILOT01","703","1197","N","","","",null,"",null,"",null,"",null,"",null,null,"","",null,"","","","","","","","","","","","",""],[299,"CDISCPILOT01","703","1210","Y","E01","DISORIENTATION","DISORIENTATION",null,"DISORIENTATION",null,"HLT_0299",null,"HLGT_0307",null,"PSYCHIATRIC DISORDERS",null,1,"No","",2,"NOT RECOVERED/NOT RESOLVED","N","N","N","N","","N","N","N","12-APR-2013","02-APR-2013","","Y"],[300,"CDISCPILOT01","703","1210","Y","E04","DECREASED APPETITE","DECREASED APPETITE",null,"DECREASED APPETITE",null,"HLT_0574",null,"HLGT_0231",null,"METABOLISM AND NUTRITION DISORDERS",null,1,"No","",3,"NOT RECOVERED/NOT RESOLVED","N","N","N","N","","N","N","N","10-MAY-2013","04-MAY-2013","","Y"],[301,"CDISCPILOT01","703","1210","Y","E04","DECREASED APPETITE","DECREASED APPETITE",null,"DECREASED APPETITE",null,"HLT_0574",null,"HLGT_0231",null,"METABOLISM AND NUTRITION DISORDERS",null,2,"No","",3,"NOT RECOVERED/NOT RESOLVED","N","N","N","N","","N","N","N","24-AUG-2013","04-MAY-2013","","Y"],[302,"CDISCPILOT01","703","1258","Y","E06","DIZZINESS","DIZZINESS",null,"DIZZINESS",null,"HLT_0619",null,"HLGT_0751",null,"NERVOUS SYSTEM DISORDERS",null,2,"No","",1,"NOT RECOVERED/NOT RESOLVED","N","N","N","N","","N","N","N","04-SEP-2012","2001","","Y"],[303,"CDISCPILOT01","703","1258","Y","E06","DIZZINESS","DIZZINESS",null,"DIZZINESS",null,"HLT_0619",null,"HLGT_0751",null,"NERVOUS SYSTEM DISORDERS",null,1,"No","",1,"NOT RECOVERED/NOT RESOLVED","N","N","N","N","","N","N","N","14-SEP-2012","2001","","Y"],[304,"CDISCPILOT01","703","1258","Y","E07","UPPER RESPIRATORY TRACT INFECTION","UPPER RESPIRATORY INFECTION",null,"UPPER RESPIRATORY TRACT INFECTION",null,"HLT_0520",null,"HLGT_0489",null,"INFECTIONS AND INFESTATIONS",null,1,"No","",1,"NOT RECOVERED/NOT RESOLVED","N","N","N","N","","N","N","N","17-AUG-2012","11-AUG-2012","19-AUG-2012","N"],[305,"CDISCPILOT01","703","1258","Y","E07","UPPER RESPIRATORY TRACT INFECTION","UPPER RESPIRATORY INFECTION",null,"UPPER RESPIRATORY TRACT INFECTION",null,"HLT_0520",null,"HLGT_0489",null,"INFECTIONS AND INFESTATIONS",null,1,"No","",1,"RECOVERED/RESOLVED","N","N","N","N","","N","N","N","04-SEP-2012","11-AUG-2012","19-AUG-2012","N"],[306,"CDISCPILOT01","703","1258","Y","E08","APPLICATION SITE DERMATITIS","APPLICATION SITE RASH",null,"APPLICATION SITE DERMATITIS",null,"HLT_0343",null,"HLGT_0241",null,"GENERAL DISORDERS AND ADMINISTRATION SITE CONDITIONS",null,1,"No","",4,"NOT RECOVERED/NOT RESOLVED","N","N","N","N","","N","N","N","04-SEP-2012","04-SEP-2012","25-JAN-2013","N"],[307,"CDISCPILOT01","703","1258","Y","E08","APPLICATION SITE DERMATITIS","APPLICATION SITE RASH",null,"APPLICATION SITE DERMATITIS",null,"HLT_0343",null,"HLGT_0241",null,"GENERAL DISORDERS AND ADMINISTRATION SITE CONDITIONS",null,2,"No","",4,"NOT RECOVERED/NOT RESOLVED","N","N","N","N","","N","N","N","14-SEP-2012","04-SEP-2012","25-JAN-2013","N"],[308,"CDISCPILOT01","703","1258","Y","E08","APPLICATION SITE DERMATITIS","APPLICATION SITE RASH",null,"APPLICATION SITE DERMATITIS",null,"HLT_0343",null,"HLGT_0241",null,"GENERAL DISORDERS AND ADMINISTRATION SITE CONDITIONS",null,1,"No","",4,"RECOVERED/RESOLVED","N","N","N","N","","N","N","N","28-JAN-2013","04-SEP-2012","25-JAN-2013","N"],[309,"CDISCPILOT01","703","1279","N","","","",null,"",null,"",null,"",null,"",null,null,"","",null,"","","","","","","","","","","","",""],[310,"CDISCPILOT01","703","1295","Y","E06","ARTHRITIS","ARTHRITIS",null,"ARTHRITIS",null,"HLT_0019",null,"HLGT_0587",null,"MUSCULOSKELETAL AND CONNECTIVE TISSUE DISORDERS",null,2,"No","",1,"NOT RECOVERED/NOT RESOLVED","N","N","N","N","","N","N","N","01-JAN-2014","28-DEC-2013","","Y"],[311,"CDISCPILOT01","703","1299","Y","E01","GLAUCOMA","GLAUCOMA",null,"GLAUCOMA",null,"HLT_0556",null,"HLGT_0734",null,"EYE DISORDERS",null,2,"No","",1,"NOT RECOVERED/NOT RESOLVED","N","N","N","N","","N","N","N","01-MAR-2013","1992","","Y"],[312,"CDISCPILOT01","703","1299","Y","E02","UPPER RESPIRATORY TRACT INFECTION","UPPER RESPIRATORY INFECTION",null,"UPPER RESPIRATORY TRACT INFECTION",null,"HLT_0520",null,"HLGT_0489",null,"INFECTIONS AND INFESTATIONS",null,1,"No","",1,"NOT RECOVERED/NOT RESOLVED","N","N","N","N","","N","N","N","28-SEP-2012","27-SEP-2012","06-OCT-2012","N"],[313,"CDISCPILOT01","703","1299","Y","E02","UPPER RESPIRATORY TRACT INFECTION","UPPER RESPIRATORY INFECTION",null,"UPPER RESPIRATORY TRACT INFECTION",null,"HLT_0520",null,"HLGT_0489",null,"INFECTIONS AND INFESTATIONS",null,1,"No","",1,"RECOVERED/RESOLVED","N","N","N","N","","N","N","N","10-OCT-2012","27-SEP-2012","06-OCT-2012","N"],[314,"CDISCPILOT01","703","1299","Y","E05","HYPOTENSION","HYPOTENSION",null,"HYPOTENSION",null,"HLT_0761",null,"HLGT_0412",null,"VASCULAR DISORDERS",null,1,"No","",2,"NOT RECOVERED/NOT RESOLVED","N","N","N","N","","N","N","N","01-MAR-2013","01-MAR-2013","","Y"],[315,"CDISCPILOT01","703","1299","Y","E05","HYPOTENSION","HYPOTENSION",null,"HYPOTENSION",null,"HLT_0761",null,"HLGT_0412",null,"VASCULAR DISORDERS",null,2,"No","",2,"NOT RECOVERED/NOT RESOLVED","N","N","N","N","","N","N","N","13-MAR-2013","01-MAR-2013","","Y"],[316,"CDISCPILOT01","703","1299","Y","E06","TACHYCARDIA","TACHYCARDIA",null,"TACHYCARDIA",null,"HLT_0082",null,"HLGT_0574",null,"CARDIAC DISORDERS",null,1,"No","",2,"NOT RECOVERED/NOT RESOLVED","N","N","N","N","","N","N","N","01-MAR-2013","01-MAR-2013","","Y"],[317,"CDISCPILOT01","703","1299","Y","E06","TACHYCARDIA","TACHYCARDIA",null,"TACHYCARDIA",null,"HLT_0082",null,"HLGT_0574",null,"CARDIAC DISORDERS",null,2,"No","",2,"NOT RECOVERED/NOT RESOLVED","N","N","N","N","","N","N","N","13-MAR-2013","01-MAR-2013","","Y"],[318,"CDISCPILOT01","703","1299","Y","E07","MYOCARDIAL INFARCTION","MYOCARDIAL INFARCTION",null,"MYOCARDIAL INFARCTION",null,"HLT_0649",null,"HLGT_0688",null,"CARDIAC DISORDERS",null,2,"No","",2,"NOT RECOVERED/NOT RESOLVED","N","N","N","N","","N","N","N","13-MAR-2013","13-MAR-2013","","Y"],[319,"CDISCPILOT01","703","1335","Y","E01","ATRIOVENTRICULAR BLOCK SECOND DEGREE","AV BLOCK SECOND DEGREE",null,"ATRIOVENTRICULAR BLOCK SECOND DEGREE",null,"HLT_0415",null,"HLGT_0086",null,"CARDIAC DISORDERS",null,1,"No","",1,"NOT RECOVERED/NOT RESOLVED","N","N","N","N","","N","N","N","15-MAR-2014","15-MAR-2014","30-MAR-2014","N"],[320,"CDISCPILOT01","703","1335","Y","E01","ATRIOVENTRICULAR BLOCK SECOND DEGREE","AV BLOCK SECOND DEGREE",null,"ATRIOVENTRICULAR BLOCK SECOND DEGREE",null,"HLT_0415",null,"HLGT_0086",null,"CARDIAC DISORDERS",null,1,"No","",1,"RECOVERED/RESOLVED","N","N","N","N","","N","N","N","31-MAR-2014","15-MAR-2014","30-MAR-2014","N"],[321,"CDISCPILOT01","703","1379","N","","","",null,"",null,"",null,"",null,"",null,null,"","",null,"","","","","","","","","","","","",""],[322,"CDISCPILOT01","703","1396","N","","","",null,"",null,"",null,"",null,"",null,null,"","",null,"","","","","","","","","","","","",""],[323,"CDISCPILOT01","703","1403","Y","E01","DIARRHOEA","DIARRHEA",null,"DIARRHOEA",null,"HLT_0148",null,"HLGT_0588",null,"GASTROINTESTINAL DISORDERS",null,2,"No","",4,"RECOVERED/RESOLVED","N","N","N","N","","N","N","N","19-DEC-2012","13-DEC-2012","14-DEC-2012","N"],[324,"CDISCPILOT01","703","1403","Y","E02","VOMITING","VOMITING",null,"VOMITING",null,"HLT_0016",null,"HLGT_0350",null,"GASTROINTESTINAL DISORDERS",null,2,"No","",4,"RECOVERED/RESOLVED","N","N","N","N","","N","N","N","19-DEC-2012","13-DEC-2012","14-DEC-2012","N"],[325,"CDISCPILOT01","703","1403","Y","E03","CHEST DISCOMFORT","CHEST TIGHTNESS",null,"CHEST DISCOMFORT",null,"HLT_0593",null,"HLGT_0441",null,"GENERAL DISORDERS AND ADMINISTRATION SITE CONDITIONS",null,1,"No","",4,"RECOVERED/RESOLVED","N","N","N","N","","N","N","N","19-DEC-2012","15-DEC-2012","16-DEC-2012","N"],[326,"CDISCPILOT01","703","1403","Y","E07","WEIGHT DECREASED","WEIGHT LOSS",null,"WEIGHT DECREASED",null,"HLT_0158",null,"HLGT_0778",null,"INVESTIGATIONS",null,2,"No","",1,"NOT RECOVERED/NOT RESOLVED","N","N","N","N","","N","N","N","19-DEC-2012","12-DEC-2012","19-DEC-2012","N"],[327,"CDISCPILOT01","703","1403","Y","E07","WEIGHT DECREASED","WEIGHT LOSS",null,"WEIGHT DECREASED",null,"HLT_0158",null,"HLGT_0778",null,"INVESTIGATIONS",null,2,"No","",1,"RECOVERED/RESOLVED","N","N","N","N","","N","N","N","08-JAN-2013","12-DEC-2012","19-DEC-2012","N"],[328,"CDISCPILOT01","703","1439","Y","E01","APPLICATION SITE IRRITATION","APPLICATION SITE IRRITATION",null,"APPLICATION SITE IRRITATION",null,"HLT_0061",null,"HLGT_0346",null,"GENERAL DISORDERS AND ADMINISTRATION SITE CONDITIONS",null,1,"No","",4,"NOT RECOVERED/NOT RESOLVED","N","N","N","N","","N","N","N","05-MAY-2014","24-APR-2014","","Y"],[329,"CDISCPILOT01","703","1439","Y","E01","APPLICATION SITE IRRITATION","APPLICATION SITE IRRITATION",null,"APPLICATION SITE IRRITATION",null,"HLT_0061",null,"HLGT_0346",null,"GENERAL DISORDERS AND ADMINISTRATION SITE CONDITIONS",null,2,"No","",4,"NOT RECOVERED/NOT RESOLVED","N","N","N","N","","N","N","N","30-JUN-2014","24-APR-2014","","Y"],[330,"CDISCPILOT01","704","1008","Y","E03","HYPERHIDROSIS","SWEATING INCREASED",null,"HYPERHIDROSIS",null,"HLT_0587",null,"HLGT_0005",null,"SKIN AND SUBCUTANEOUS TISSUE DISORDERS",null,1,"No","",3,"NOT RECOVERED/NOT RESOLVED","N","N","N","N","","N","N","N","09-FEB-2013","30-JAN-2013","","Y"],[331,"CDISCPILOT01","704","1008","Y","E05","SINUS BRADYCARDIA","SINUS BRADYCARDIA",null,"SINUS BRADYCARDIA",null,"HLT_0644",null,"HLGT_0500",null,"CARDIAC DISORDERS",null,2,"No","",1,"NOT RECOVERED/NOT RESOLVED","N","N","N","N","","N","N","N","25-FEB-2013","25-FEB-2013","","Y"],[332,"CDISCPILOT01","704","1008","Y","E06","TRANSIENT ISCHAEMIC ATTACK","TRANSIENT ISCHEMIC ATTACKS",null,"TRANSIENT ISCHAEMIC ATTACK",null,"HLT_0041",null,"HLGT_0433",null,"NERVOUS SYSTEM DISORDERS",null,3,"No","",1,"RECOVERED/RESOLVED","N","N","N","N","","Y","N","N","25-FEB-2013","21-FEB-2013","21-FEB-2013","N"],[333,"CDISCPILOT01","704","1009","Y","E03","RASH","RASH",null,"RASH",null,"HLT_0762",null,"HLGT_0198",null,"SKIN AND SUBCUTANEOUS TISSUE DISORDERS",null,1,"No","",3,"NOT RECOVERED/NOT RESOLVED","N","N","N","N","","N","N","N","14-SEP-2013","14-SEP-2013","","Y"],[334,"CDISCPILOT01","704","1009","Y","E07","DIZZINESS","DIZZINESS",null,"DIZZINESS",null,"HLT_0619",null,"HLGT_0751",null,"NERVOUS SYSTEM DISORDERS",null,1,"No","",2,"NOT RECOVERED/NOT RESOLVED","N","N","N","N","","N","N","N","02-OCT-2013","17-SEP-2013","","Y"],[335,"CDISCPILOT01","704","1009","Y","E08","NAUSEA","NAUSEA",null,"NAUSEA",null,"HLT_0742",null,"HLGT_0326",null,"GASTROINTESTINAL DISORDERS",null,1,"No","",3,"RECOVERED/RESOLVED","N","N","N","N","","N","N","N","02-OCT-2013","22-SEP-2013","23-SEP-2013","N"],[336,"CDISCPILOT01","704","1009","Y","E09","FATIGUE","FATIGUE",null,"FATIGUE",null,"HLT_0043",null,"HLGT_0181",null,"GENERAL DISORDERS AND ADMINISTRATION SITE CONDITIONS",null,1,"No","",2,"NOT RECOVERED/NOT RESOLVED","N","N","N","N","","N","N","N","14-SEP-2013","05-SEP-2013","","Y"],[337,"CDISCPILOT01","704","1009","Y","E10","MALAISE","MALAISE",null,"MALAISE",null,"HLT_0456",null,"HLGT_0178",null,"GENERAL DISORDERS AND ADMINISTRATION SITE CONDITIONS",null,1,"No","",3,"NOT RECOVERED/NOT RESOLVED","N","N","N","N","","N","N","N","14-SEP-2013","05-SEP-2013","27-SEP-2013","N"],[338,"CDISCPILOT01","704","1009","Y","E10","MALAISE","MALAISE",null,"MALAISE",null,"HLT_0456",null,"HLGT_0178",null,"GENERAL DISORDERS AND ADMINISTRATION SITE CONDITIONS",null,1,"No","",3,"RECOVERED/RESOLVED","N","N","N","N","","N","N","N","02-OCT-2013","05-SEP-2013","27-SEP-2013","N"],[339,"CDISCPILOT01","704","1010","Y","E01","CYSTITIS","BLADDER INFECTION",null,"CYSTITIS",null,"HLT_0739",null,"HLGT_0129",null,"INFECTIONS AND INFESTATIONS",null,1,"No","",1,"RECOVERED/RESOLVED","N","N","N","N","","N","N","N","08-MAR-2014","27-FEB-2014","06-MAR-2014","N"],[340,"CDISCPILOT01","704","1010","Y","E03","VOMITING","VOMITING",null,"VOMITING",null,"HLT_0016",null,"HLGT_0350",null,"GASTROINTESTINAL DISORDERS",null,1,"No","",1,"RECOVERED/RESOLVED","N","N","N","N","","N","N","N","09-JUL-2014","05-JUL-2014","06-JUL-2014","N"],[341,"CDISCPILOT01","704","1010","Y","E04","DIARRHOEA","DIARRHEA",null,"DIARRHOEA",null,"HLT_0148",null,"HLGT_0588",null,"GASTROINTESTINAL DISORDERS",null,1,"No","",1,"RECOVERED/RESOLVED","N","N","N","N","","N","N","N","09-JUL-2014","05-JUL-2014","06-JUL-2014","N"],[342,"CDISCPILOT01","704","1010","Y","E05","EXCORIATION","ABRASION NOS",null,"EXCORIATION",null,"HLT_0738",null,"HLGT_0511",null,"INJURY, POISONING AND PROCEDURAL COMPLICATIONS",null,1,"No","",1,"NOT RECOVERED/NOT RESOLVED","N","N","N","N","","N","N","N","09-JUL-2014","06-JUL-2014","","Y"],[343,"CDISCPILOT01","704","1010","Y","E06","SKIN LACERATION","SKIN TEAR",null,"SKIN LACERATION",null,"HLT_0075",null,"HLGT_0118",null,"INJURY, POISONING AND PROCEDURAL COMPLICATIONS",null,1,"No","",1,"NOT RECOVERED/NOT RESOLVED","N","N","N","N","","N","N","N","09-JUL-2014","06-JUL-2014","","Y"],[344,"CDISCPILOT01","704","1010","Y","E07","ARTHRALGIA","KNEE PAIN",null,"ARTHRALGIA",null,"HLT_0375",null,"HLGT_0610",null,"MUSCULOSKELETAL AND CONNECTIVE TISSUE DISORDERS",null,1,"No","",1,"NOT RECOVERED/NOT RESOLVED","N","N","N","N","","N","N","N","09-JUL-2014","06-JUL-2014","","Y"],[345,"CDISCPILOT01","704","1010","Y","E08","CONTUSION","BRUISE OF HEAD",null,"CONTUSION",null,"HLT_0713",null,"HLGT_0381",null,"INJURY, POISONING AND PROCEDURAL COMPLICATIONS",null,1,"No","",1,"NOT RECOVERED/NOT RESOLVED","N","N","N","N","","N","N","N","09-JUL-2014","06-JUL-2014","","Y"],[346,"CDISCPILOT01","704","1017","Y","E11","RASH","RASH",null,"RASH",null,"HLT_0762",null,"HLGT_0198",null,"SKIN AND SUBCUTANEOUS TISSUE DISORDERS",null,1,"No","",4,"NOT RECOVERED/NOT RESOLVED","N","N","N","N","","N","N","N","09-NOV-2013","05-NOV-2013","22-NOV-2013","N"],[347,"CDISCPILOT01","704","1017","Y","E11","RASH","RASH",null,"RASH",null,"HLT_0762",null,"HLGT_0198",null,"SKIN AND SUBCUTANEOUS TISSUE DISORDERS",null,1,"No","",4,"RECOVERED/RESOLVED","N","N","N","N","","N","N","N","24-NOV-2013","05-NOV-2013","22-NOV-2013","N"],[348,"CDISCPILOT01","704","1017","Y","E12","PRURITUS","ITCHING",null,"PRURITUS",null,"HLT_0778",null,"HLGT_0695",null,"SKIN AND SUBCUTANEOUS TISSUE DISORDERS",null,1,"No","",4,"NOT RECOVERED/NOT RESOLVED","N","N","N","N","","N","N","N","09-NOV-2013","05-NOV-2013","22-NOV-2013","N"],[349,"CDISCPILOT01","704","1017","Y","E12","PRURITUS","ITCHING",null,"PRURITUS",null,"HLT_0778",null,"HLGT_0695",null,"SKIN AND SUBCUTANEOUS TISSUE DISORDERS",null,1,"No","",4,"RECOVERED/RESOLVED","N","N","N","N","","N","N","N","24-NOV-2013","05-NOV-2013","22-NOV-2013","N"],[350,"CDISCPILOT01","704","1017","Y","E13","INFLUENZA","FLU",null,"INFLUENZA",null,"HLT_0125",null,"HLGT_0081",null,"INFECTIONS AND INFESTATIONS",null,1,"No","",1,"RECOVERED/RESOLVED","N","N","N","N","","N","N","N","09-NOV-2013","01-NOV-2013","08-NOV-2013","N"],[351,"CDISCPILOT01","704","1017","Y","E14","MYOCARDIAL INFARCTION","MYOCARDIAL INFARCTION",null,"MYOCARDIAL INFARCTION",null,"HLT_0649",null,"HLGT_0688",null,"CARDIAC DISORDERS",null,1,"No","",1,"NOT RECOVERED/NOT RESOLVED","N","N","N","N","","N","N","N","19-OCT-2013","19-OCT-2013","","Y"],[352,"CDISCPILOT01","704","1017","Y","E15","VENTRICULAR SEPTAL DEFECT","VENTRICULAR SEPTAL DEFECT",null,"VENTRICULAR SEPTAL DEFECT",null,"HLT_0589",null,"HLGT_0747",null,"CONGENITAL, FAMILIAL AND GENETIC DISORDERS",null,1,"No","",1,"NOT RECOVERED/NOT RESOLVED","N","N","N","N","","N","N","N","19-OCT-2013","19-OCT-2013","","Y"],[353,"CDISCPILOT01","704","1017","Y","E16","CARDIAC DISORDER","CARDIAC DISORDER",null,"CARDIAC DISORDER",null,"HLT_0507",null,"HLGT_0126",null,"CARDIAC DISORDERS",null,1,"No","",1,"NOT RECOVERED/NOT RESOLVED","N","N","N","N","","N","N","N","09-NOV-2013","01-NOV-2013","","Y"],[354,"CDISCPILOT01","704","1025","Y","E01","VERTIGO","VERTIGO",null,"VERTIGO",null,"HLT_0255",null,"HLGT_0147",null,"EAR AND LABYRINTH DISORDERS",null,2,"No","",3,"RECOVERED/RESOLVED","N","N","N","N","","N","N","N","11-OCT-2013","28-SEP-2013","30-SEP-2013","N"],[355,"CDISCPILOT01","704","1025","Y","E02","PALPITATIONS","PALPITATIONS",null,"PALPITATIONS",null,"HLT_0493",null,"HLGT_0593",null,"CARDIAC DISORDERS",null,2,"No","",2,"RECOVERED/RESOLVED","N","N","N","N","","N","N","N","11-OCT-2013","28-SEP-2013","30-SEP-2013","N"],[356,"CDISCPILOT01","704","1025","Y","E05","ELECTROCARDIOGRAM ST SEGMENT DEPRESSION","ST SEGMENT DEPRESSED",null,"ELECTROCARDIOGRAM ST SEGMENT DEPRESSION",null,"HLT_0610",null,"HLGT_0220",null,"INVESTIGATIONS",null,1,"No","",3,"NOT RECOVERED/NOT RESOLVED","N","N","N","N","","N","N","N","11-OCT-2013","11-OCT-2013","25-OCT-2013","N"],[357,"CDISCPILOT01","704","1025","Y","E05","ELECTROCARDIOGRAM ST SEGMENT DEPRESSION","ST SEGMENT DEPRESSED",null,"ELECTROCARDIOGRAM ST SEGMENT DEPRESSION",null,"HLT_0610",null,"HLGT_0220",null,"INVESTIGATIONS",null,1,"No","",3,"RECOVERED/RESOLVED","N","N","N","N","","N","N","N","29-NOV-2013","11-OCT-2013","25-OCT-2013","N"],[358,"CDISCPILOT01","704","1025","Y","E06","WOLFF-PARKINSON-WHITE SYNDROME","WOLFF-PARKINSON-WHITE SYNDROME",null,"WOLFF-PARKINSON-WHITE SYNDROME",null,"HLT_0612",null,"HLGT_0218",null,"CARDIAC DISORDERS",null,1,"No","",3,"NOT RECOVERED/NOT RESOLVED","N","N","N","N","","N","N","N","25-OCT-2013","25-OCT-2013","29-NOV-2013","N"],[359,"CDISCPILOT01","704","1025","Y","E06","WOLFF-PARKINSON-WHITE SYNDROME","WOLFF-PARKINSON-WHITE SYNDROME",null,"WOLFF-PARKINSON-WHITE SYNDROME",null,"HLT_0612",null,"HLGT_0218",null,"CARDIAC DISORDERS",null,1,"No","",3,"RECOVERED/RESOLVED","N","N","N","N","","N","N","N","29-NOV-2013","25-OCT-2013","29-NOV-2013","N"],[360,"CDISCPILOT01","704","1065","Y","E07","RASH","RASH",null,"RASH",null,"HLT_0762",null,"HLGT_0198",null,"SKIN AND SUBCUTANEOUS TISSUE DISORDERS",null,1,"No","",4,"NOT RECOVERED/NOT RESOLVED","N","N","N","N","","N","N","N","07-NOV-2013","27-OCT-2013","","Y"],[361,"CDISCPILOT01","704","1065","Y","E10","APPLICATION SITE PRURITUS","APPLICATION SITE ITCHING",null,"APPLICATION SITE PRURITUS",null,"HLT_0317",null,"HLGT_0338",null,"GENERAL DISORDERS AND ADMINISTRATION SITE CONDITIONS",null,2,"No","",4,"NOT RECOVERED/NOT RESOLVED","N","N","N","N","","N","N","N","07-NOV-2013","27-OCT-2013","","Y"],[362,"CDISCPILOT01","704","1065","Y","E12","APPLICATION SITE IRRITATION","APPLICATION SITE BURNING",null,"APPLICATION SITE IRRITATION",null,"HLT_0061",null,"HLGT_0346",null,"GENERAL DISORDERS AND ADMINISTRATION SITE CONDITIONS",null,1,"No","",4,"NOT RECOVERED/NOT RESOLVED","N","N","N","N","","N","N","N","25-NOV-2013","09-NOV-2013","","Y"],[363,"CDISCPILOT01","704","1065","Y","E13","ABDOMINAL DISCOMFORT","ABDOMINAL DISCOMFORT",null,"ABDOMINAL DISCOMFORT",null,"HLT_0012",null,"HLGT_0332",null,"GASTROINTESTINAL DISORDERS",null,1,"No","",2,"NOT RECOVERED/NOT RESOLVED","N","N","N","N","","N","N","N","07-NOV-2013","26-OCT-2013","","Y"],[364,"CDISCPILOT01","704","1065","Y","E14","MALAISE","MALAISE",null,"MALAISE",null,"HLT_0456",null,"HLGT_0178",null,"GENERAL DISORDERS AND ADMINISTRATION SITE CONDITIONS",null,1,"No","",3,"NOT RECOVERED/NOT RESOLVED","N","N","N","N","","N","N","N","25-NOV-2013","09-NOV-2013","","Y"],[365,"CDISCPILOT01","704","1065","Y","E15","HYPERHIDROSIS","PERSPIRATION EXCESSIVE",null,"HYPERHIDROSIS",null,"HLT_0587",null,"HLGT_0005",null,"SKIN AND SUBCUTANEOUS TISSUE DISORDERS",null,1,"No","",3,"NOT RECOVERED/NOT RESOLVED","N","N","N","N","","N","N","N","25-NOV-2013","09-NOV-2013","","Y"],[366,"CDISCPILOT01","704","1065","Y","E16","CHILLS","CHILLS",null,"CHILLS",null,"HLT_0586",null,"HLGT_0161",null,"GENERAL DISORDERS AND ADMINISTRATION SITE CONDITIONS",null,1,"No","",2,"RECOVERED/RESOLVED","N","N","N","N","","N","N","N","25-NOV-2013","17-NOV-2013","17-NOV-2013","N"],[367,"CDISCPILOT01","704","1065","Y","E17","DIZZINESS","DIZZINESS",null,"DIZZINESS",null,"HLT_0619",null,"HLGT_0751",null,"NERVOUS SYSTEM DISORDERS",null,1,"No","",2,"RECOVERED/RESOLVED","N","N","N","N","","N","N","N","25-NOV-2013","17-NOV-2013","17-NOV-2013","N"],[368,"CDISCPILOT01","704","1065","Y","E18","DIARRHOEA","DIARRHEA",null,"DIARRHOEA",null,"HLT_0148",null,"HLGT_0588",null,"GASTROINTESTINAL DISORDERS",null,1,"No","",2,"RECOVERED/RESOLVED","N","N","N","N","","N","N","N","20-DEC-2013","15-DEC-2013","15-DEC-2013","N"],[369,"CDISCPILOT01","704","1065","Y","E19","SINUS BRADYCARDIA","BRADYCARDIA SINUS",null,"SINUS BRADYCARDIA",null,"HLT_0644",null,"HLGT_0500",null,"CARDIAC DISORDERS",null,1,"No","",1,"NOT RECOVERED/NOT RESOLVED","N","N","N","N","","N","N","N","24-DEC-2013","24-DEC-2013","","Y"],[370,"CDISCPILOT01","704","1074","Y","E08","PRURITUS","ITCHING",null,"PRURITUS",null,"HLT_0778",null,"HLGT_0695",null,"SKIN AND SUBCUTANEOUS TISSUE DISORDERS",null,1,"No","",4,"NOT RECOVERED/NOT RESOLVED","N","N","N","N","","N","N","N","22-JAN-2014","22-JAN-2014","","Y"],[371,"CDISCPILOT01","704","1074","Y","E09","ERYTHEMA","SKIN RED",null,"ERYTHEMA",null,"HLT_0284",null,"HLGT_0192",null,"SKIN AND SUBCUTANEOUS TISSUE DISORDERS",null,1,"No","",4,"NOT RECOVERED/NOT RESOLVED","N","N","N","N","","N","N","N","09-FEB-2014","09-FEB-2014","","Y"],[372,"CDISCPILOT01","704","1093","Y","E02","BLOOD GLUCOSE INCREASED","GLUCOSE INCREASED",null,"BLOOD GLUCOSE INCREASED",null,"HLT_0450",null,"HLGT_0188",null,"INVESTIGATIONS",null,1,"No","",1,"NOT RECOVERED/NOT RESOLVED","N","N","N","N","","N","N","N","30-MAR-2013","30-MAR-2013","13-APR-2013","N"],[373,"CDISCPILOT01","704","1093","Y","E02","BLOOD GLUCOSE INCREASED","GLUCOSE INCREASED",null,"BLOOD GLUCOSE INCREASED",null,"HLT_0450",null,"HLGT_0188",null,"INVESTIGATIONS",null,1,"No","",1,"RECOVERED/RESOLVED","N","N","N","N","","N","N","N","17-APR-2013","30-MAR-2013","13-APR-2013","N"],[374,"CDISCPILOT01","704","1093","Y","E05","RASH","RASH",null,"RASH",null,"HLT_0762",null,"HLGT_0198",null,"SKIN AND SUBCUTANEOUS TISSUE DISORDERS",null,1,"No","",4,"NOT RECOVERED/NOT RESOLVED","N","N","N","N","","N","N","N","11-MAY-2013","04-MAY-2013","","Y"],[375,"CDISCPILOT01","704","1093","Y","E06","PRURITUS","ITCHING",null,"PRURITUS",null,"HLT_0778",null,"HLGT_0695",null,"SKIN AND SUBCUTANEOUS TISSUE DISORDERS",null,1,"No","",4,"NOT RECOVERED/NOT RESOLVED","N","N","N","N","","N","N","N","11-MAY-2013","04-MAY-2013","","Y"],[376,"CDISCPILOT01","704","1114","Y","E03","OEDEMA","EDEMA",null,"OEDEMA",null,"HLT_0656",null,"HLGT_0036",null,"GENERAL DISORDERS AND ADMINISTRATION SITE CONDITIONS",null,1,"No","",4,"NOT RECOVERED/NOT RESOLVED","N","N","N","N","","N","N","N","13-MAR-2013","23-FEB-2013","","Y"],[377,"CDISCPILOT01","704","1114","Y","E04","RASH","RASH",null,"RASH",null,"HLT_0762",null,"HLGT_0198",null,"SKIN AND SUBCUTANEOUS TISSUE DISORDERS",null,1,"No","",4,"NOT RECOVERED/NOT RESOLVED","N","N","N","N","","N","N","N","26-MAR-2013","23-MAR-2013","","Y"],[378,"CDISCPILOT01","704","1114","Y","E05","PRURITUS","ITCHING",null,"PRURITUS",null,"HLT_0778",null,"HLGT_0695",null,"SKIN AND SUBCUTANEOUS TISSUE DISORDERS",null,1,"No","",4,"NOT RECOVERED/NOT RESOLVED","N","N","N","N","","N","N","N","26-MAR-2013","23-MAR-2013","","Y"],[379,"CDISCPILOT01","704","1114","Y","E06","ERYTHEMA","REDNESS",null,"ERYTHEMA",null,"HLT_0284",null,"HLGT_0192",null,"SKIN AND SUBCUTANEOUS TISSUE DISORDERS",null,1,"No","",4,"RECOVERED/RESOLVED","N","N","N","N","","N","N","N","13-MAR-2013","21-FEB-2013","23-FEB-2013","N"],[380,"CDISCPILOT01","704","1114","Y","E07","INFLUENZA","FLU",null,"INFLUENZA",null,"HLT_0125",null,"HLGT_0081",null,"INFECTIONS AND INFESTATIONS",null,1,"No","",1,"RECOVERED/RESOLVED","N","N","N","N","","N","N","N","16-JUN-2013","07-JUN-2013","13-JUN-2013","N"],[381,"CDISCPILOT01","704","1120","Y","E01","RASH","RASH",null,"RASH",null,"HLT_0762",null,"HLGT_0198",null,"SKIN AND SUBCUTANEOUS TISSUE DISORDERS",null,1,"No","",4,"NOT RECOVERED/NOT RESOLVED","N","N","N","N","","N","N","N","29-DEC-2013","23-DEC-2013","","Y"],[382,"CDISCPILOT01","704","1120","Y","E01","RASH","RASH",null,"RASH",null,"HLT_0762",null,"HLGT_0198",null,"SKIN AND SUBCUTANEOUS TISSUE DISORDERS",null,2,"No","",4,"NOT RECOVERED/NOT RESOLVED","N","N","N","N","","N","N","N","27-JAN-2014","23-DEC-2013","","Y"],[383,"CDISCPILOT01","704","1120","Y","E02","NASOPHARYNGITIS","COLD",null,"NASOPHARYNGITIS",null,"HLT_0036",null,"HLGT_0709",null,"INFECTIONS AND INFESTATIONS",null,1,"No","",1,"NOT RECOVERED/NOT RESOLVED","N","N","N","N","","N","N","N","29-DEC-2013","28-DEC-2013","03-FEB-2014","N"],[384,"CDISCPILOT01","704","1120","Y","E02","NASOPHARYNGITIS","COLD",null,"NASOPHARYNGITIS",null,"HLT_0036",null,"HLGT_0709",null,"INFECTIONS AND INFESTATIONS",null,1,"No","",1,"RECOVERED/RESOLVED","N","N","N","N","","N","N","N","10-MAR-2014","28-DEC-2013","03-FEB-2014","N"],[385,"CDISCPILOT01","704","1120","Y","E04","PRURITUS","ITCHING",null,"PRURITUS",null,"HLT_0778",null,"HLGT_0695",null,"SKIN AND SUBCUTANEOUS TISSUE DISORDERS",null,1,"No","",4,"NOT RECOVERED/NOT RESOLVED","N","N","N","N","","N","N","N","27-JAN-2014","27-JAN-2014","","Y"],[386,"CDISCPILOT01","704","1120","Y","E04","PRURITUS","ITCHING",null,"PRURITUS",null,"HLT_0778",null,"HLGT_0695",null,"SKIN AND SUBCUTANEOUS TISSUE DISORDERS",null,2,"No","",4,"NOT RECOVERED/NOT RESOLVED","N","N","N","N","","N","N","N","03-FEB-2014","27-JAN-2014","","Y"],[387,"CDISCPILOT01","704","1127","N","","","",null,"",null,"",null,"",null,"",null,null,"","",null,"","","","","","","","","","","","",""],[388,"CDISCPILOT01","704","1135","Y","E01","RASH","RASH",null,"RASH",null,"HLT_0762",null,"HLGT_0198",null,"SKIN AND SUBCUTANEOUS TISSUE DISORDERS",null,1,"No","",null,"NOT RECOVERED/NOT RESOLVED","N","N","N","N","","N","N","N","11-DEC-2013","08-DEC-2013","","Y"],[389,"CDISCPILOT01","704","1135","Y","E01","RASH","RASH",null,"RASH",null,"HLT_0762",null,"HLGT_0198",null,"SKIN AND SUBCUTANEOUS TISSUE DISORDERS",null,3,"No","",null,"NOT RECOVERED/NOT RESOLVED","N","N","N","N","","N","N","N","19-FEB-2014","08-DEC-2013","","Y"],[390,"CDISCPILOT01","704","1164","Y","E02","INFLUENZA","FLU",null,"INFLUENZA",null,"HLT_0125",null,"HLGT_0081",null,"INFECTIONS AND INFESTATIONS",null,1,"No","",1,"NOT RECOVERED/NOT RESOLVED","N","N","N","N","","N","N","N","04-OCT-2012","27-SEP-2012","07-OCT-2012","N"],[391,"CDISCPILOT01","704","1164","Y","E02","INFLUENZA","FLU",null,"INFLUENZA",null,"HLT_0125",null,"HLGT_0081",null,"INFECTIONS AND INFESTATIONS",null,1,"No","",1,"RECOVERED/RESOLVED","N","N","N","N","","N","N","N","21-OCT-2012","27-SEP-2012","07-OCT-2012","N"],[392,"CDISCPILOT01","704","1164","Y","E07","OEDEMA PERIPHERAL","SWELLING OF FEET",null,"OEDEMA PERIPHERAL",null,"HLT_0661",null,"HLGT_0137",null,"GENERAL DISORDERS AND ADMINISTRATION SITE CONDITIONS",null,1,"No","",1,"RECOVERED/RESOLVED","N","N","N","N","","N","N","N","14-FEB-2013","04-FEB-2013","13-FEB-2013","N"],[393,"CDISCPILOT01","704","1218","Y","E05","BLOOD GLUCOSE INCREASED","GLUCOSE INCREASED",null,"BLOOD GLUCOSE INCREASED",null,"HLT_0450",null,"HLGT_0188",null,"INVESTIGATIONS",null,1,"No","",1,"NOT RECOVERED/NOT RESOLVED","N","N","N","N","","N","N","N","30-DEC-2012","30-DEC-2012","","Y"],[394,"CDISCPILOT01","704","1233","N","","","",null,"",null,"",null,"",null,"",null,null,"","",null,"","","","","","","","","","","","",""],[395,"CDISCPILOT01","704","1241","Y","E03","DYSPNOEA","RESPIRATION LABORED",null,"DYSPNOEA",null,"HLT_0296",null,"HLGT_0255",null,"RESPIRATORY, THORACIC AND MEDIASTINAL DISORDERS",null,1,"No","",1,"NOT RECOVERED/NOT RESOLVED","N","N","N","N","","N","N","N","09-OCT-2013","28-SEP-2013","","Y"],[396,"CDISCPILOT01","704","1241","Y","E04","RASH","RASH",null,"RASH",null,"HLT_0762",null,"HLGT_0198",null,"SKIN AND SUBCUTANEOUS TISSUE DISORDERS",null,2,"No","",1,"NOT RECOVERED/NOT RESOLVED","N","N","N","N","","N","N","N","09-OCT-2013","14-AUG-2013","","Y"],[397,"CDISCPILOT01","704","1260","N","","","",null,"",null,"",null,"",null,"",null,null,"","",null,"","","","","","","","","","","","",""],[398,"CDISCPILOT01","704","1266","Y","E10","ERYTHEMA","ERYTHEMA",null,"ERYTHEMA",null,"HLT_0284",null,"HLGT_0192",null,"SKIN AND SUBCUTANEOUS TISSUE DISORDERS",null,1,"No","",4,"NOT RECOVERED/NOT RESOLVED","N","N","N","N","","N","N","N","27-OCT-2013","17-OCT-2013","23-DEC-2013","N"],[399,"CDISCPILOT01","704","1266","Y","E10","ERYTHEMA","ERYTHEMA",null,"ERYTHEMA",null,"HLT_0284",null,"HLGT_0192",null,"SKIN AND SUBCUTANEOUS TISSUE DISORDERS",null,2,"No","",4,"NOT RECOVERED/NOT RESOLVED","N","N","N","N","","N","N","N","06-DEC-2013","17-OCT-2013","23-DEC-2013","N"],[400,"CDISCPILOT01","704","1266","Y","E10","ERYTHEMA","ERYTHEMA",null,"ERYTHEMA",null,"HLT_0284",null,"HLGT_0192",null,"SKIN AND SUBCUTANEOUS TISSUE DISORDERS",null,2,"No","",4,"RECOVERED/RESOLVED","N","N","N","N","","N","N","N","03-JAN-2014","17-OCT-2013","23-DEC-2013","N"],[401,"CDISCPILOT01","704","1266","Y","E11","SEASONAL ALLERGY","HAY FEVER",null,"SEASONAL ALLERGY",null,"HLT_0714",null,"HLGT_0782",null,"IMMUNE SYSTEM DISORDERS",null,1,"No","",1,"NOT RECOVERED/NOT RESOLVED","N","N","N","N","","N","N","N","11-OCT-2013","06-OCT-2013","","Y"],[402,"CDISCPILOT01","704","1266","Y","E12","ATRIAL FLUTTER","ATRIAL FLUTTER",null,"ATRIAL FLUTTER",null,"HLT_0477",null,"HLGT_0627",null,"CARDIAC DISORDERS",null,1,"No","",1,"NOT RECOVERED/NOT RESOLVED","N","N","N","N","","N","N","N","27-OCT-2013","27-OCT-2013","08-NOV-2013","N"],[403,"CDISCPILOT01","704","1266","Y","E12","ATRIAL FLUTTER","ATRIAL FLUTTER",null,"ATRIAL FLUTTER",null,"HLT_0477",null,"HLGT_0627",null,"CARDIAC DISORDERS",null,1,"No","",1,"RECOVERED/RESOLVED","N","N","N","N","","N","N","N","10-NOV-2013","27-OCT-2013","08-NOV-2013","N"],[404,"CDISCPILOT01","704","1266","Y","E13","ATRIAL FIBRILLATION","ATRIAL FIBRILLATION",null,"ATRIAL FIBRILLATION",null,"HLT_0365",null,"HLGT_0012",null,"CARDIAC DISORDERS",null,1,"No","",1,"NOT RECOVERED/NOT RESOLVED","N","N","N","N","","N","N","N","08-NOV-2013","08-NOV-2013","06-DEC-2013","N"],[405,"CDISCPILOT01","704","1266","Y","E13","ATRIAL FIBRILLATION","ATRIAL FIBRILLATION",null,"ATRIAL FIBRILLATION",null,"HLT_0365",null,"HLGT_0012",null,"CARDIAC DISORDERS",null,1,"No","",1,"RECOVERED/RESOLVED","N","N","N","N","","N","N","N","03-JAN-2014","08-NOV-2013","06-DEC-2013","N"],[406,"CDISCPILOT01","704","1266","Y","E15","HYPERHIDROSIS","PERSPIRATION EXCESSIVE",null,"HYPERHIDROSIS",null,"HLT_0587",null,"HLGT_0005",null,"SKIN AND SUBCUTANEOUS TISSUE DISORDERS",null,1,"No","",3,"NOT RECOVERED/NOT RESOLVED","N","N","N","N","","N","N","N","10-NOV-2013","09-NOV-2013","04-DEC-2013","N"],[407,"CDISCPILOT01","704","1266","Y","E15","HYPERHIDROSIS","PERSPIRATION EXCESSIVE",null,"HYPERHIDROSIS",null,"HLT_0587",null,"HLGT_0005",null,"SKIN AND SUBCUTANEOUS TISSUE DISORDERS",null,1,"No","",3,"RECOVERED/RESOLVED","N","N","N","N","","N","N","N","06-DEC-2013","09-NOV-2013","04-DEC-2013","N"],[408,"CDISCPILOT01","704","1266","Y","E16","BLISTER","BLISTERING",null,"BLISTER",null,"HLT_0752",null,"HLGT_0267",null,"SKIN AND SUBCUTANEOUS TISSUE DISORDERS",null,1,"No","",4,"NOT RECOVERED/NOT RESOLVED","N","N","N","N","","N","N","N","22-NOV-2013","15-NOV-2013","14-DEC-2013","N"],[409,"CDISCPILOT01","704","1266","Y","E16","BLISTER","BLISTERING",null,"BLISTER",null,"HLT_0752",null,"HLGT_0267",null,"SKIN AND SUBCUTANEOUS TISSUE DISORDERS",null,1,"No","",4,"RECOVERED/RESOLVED","N","N","N","N","","N","N","N","03-JAN-2014","15-NOV-2013","14-DEC-2013","N"],[410,"CDISCPILOT01","704","1266","Y","E17","PRURITUS","ITCHING",null,"PRURITUS",null,"HLT_0778",null,"HLGT_0695",null,"SKIN AND SUBCUTANEOUS TISSUE DISORDERS",null,1,"No","",4,"NOT RECOVERED/NOT RESOLVED","N","N","N","N","","N","N","N","22-NOV-2013","15-NOV-2013","23-DEC-2013","N"],[411,"CDISCPILOT01","704","1266","Y","E17","PRURITUS","ITCHING",null,"PRURITUS",null,"HLT_0778",null,"HLGT_0695",null,"SKIN AND SUBCUTANEOUS TISSUE DISORDERS",null,1,"No","",4,"RECOVERED/RESOLVED","N","N","N","N","","N","N","N","03-JAN-2014","15-NOV-2013","23-DEC-2013","N"],[412,"CDISCPILOT01","704","1266","Y","E18","ERYTHEMA","REDNESS",null,"ERYTHEMA",null,"HLT_0284",null,"HLGT_0192",null,"SKIN AND SUBCUTANEOUS TISSUE DISORDERS",null,1,"No","",4,"NOT RECOVERED/NOT RESOLVED","N","N","N","N","","N","N","N","06-DEC-2013","06-DEC-2013","23-DEC-2013","N"],[413,"CDISCPILOT01","704","1266","Y","E18","ERYTHEMA","REDNESS",null,"ERYTHEMA",null,"HLT_0284",null,"HLGT_0192",null,"SKIN AND SUBCUTANEOUS TISSUE DISORDERS",null,1,"No","",4,"RECOVERED/RESOLVED","N","N","N","N","","N","N","N","03-JAN-2014","06-DEC-2013","23-DEC-2013","N"],[414,"CDISCPILOT01","704","1323","Y","E07","VIRAL INFECTION","VIRAL INFECTION",null,"VIRAL INFECTION",null,"HLT_0733",null,"HLGT_0408",null,"INFECTIONS AND INFESTATIONS",null,1,"No","",1,"RECOVERED/RESOLVED","N","N","N","N","","N","N","N","04-AUG-2013","30-JUL-2013","03-AUG-2013","N"],[415,"CDISCPILOT01","704","1323","Y","E08","RASH","RASH",null,"RASH",null,"HLT_0762",null,"HLGT_0198",null,"SKIN AND SUBCUTANEOUS TISSUE DISORDERS",null,1,"No","",4,"NOT RECOVERED/NOT RESOLVED","N","N","N","N","","N","N","N","04-AUG-2013","04-AUG-2013","","Y"],[416,"CDISCPILOT01","704","1323","Y","E09","PRURITUS","ITCHING",null,"PRURITUS",null,"HLT_0778",null,"HLGT_0695",null,"SKIN AND SUBCUTANEOUS TISSUE DISORDERS",null,1,"No","",4,"NOT RECOVERED/NOT RESOLVED","N","N","N","N","","N","N","N","04-AUG-2013","04-AUG-2013","","Y"],[417,"CDISCPILOT01","704","1323","Y","E10","OEDEMA","EDEMA",null,"OEDEMA",null,"HLT_0656",null,"HLGT_0036",null,"GENERAL DISORDERS AND ADMINISTRATION SITE CONDITIONS",null,1,"No","",4,"NOT RECOVERED/NOT RESOLVED","N","N","N","N","","N","N","N","04-AUG-2013","04-AUG-2013","","Y"],[418,"CDISCPILOT01","704","1325","Y","E04","RASH","RASH",null,"RASH",null,"HLT_0762",null,"HLGT_0198",null,"SKIN AND SUBCUTANEOUS TISSUE DISORDERS",null,1,"No","",4,"NOT RECOVERED/NOT RESOLVED","N","N","N","N","","N","N","N","04-JUN-2014","23-MAY-2014","","Y"],[419,"CDISCPILOT01","704","1325","Y","E05","PRURITUS","ITCHING",null,"PRURITUS",null,"HLT_0778",null,"HLGT_0695",null,"SKIN AND SUBCUTANEOUS TISSUE DISORDERS",null,1,"No","",4,"NOT RECOVERED/NOT RESOLVED","N","N","N","N","","N","N","N","16-JUL-2014","04-JUL-2014","","Y"],[420,"CDISCPILOT01","704","1332","Y","E01","RASH","RASH",null,"RASH",null,"HLT_0762",null,"HLGT_0198",null,"SKIN AND SUBCUTANEOUS TISSUE DISORDERS",null,1,"No","",1,"NOT RECOVERED/NOT RESOLVED","N","N","N","N","","N","N","N","23-DEC-2013","10-DEC-2013","24-FEB-2014","N"],[421,"CDISCPILOT01","704","1332","Y","E01","RASH","RASH",null,"RASH",null,"HLT_0762",null,"HLGT_0198",null,"SKIN AND SUBCUTANEOUS TISSUE DISORDERS",null,2,"No","",1,"NOT RECOVERED/NOT RESOLVED","N","N","N","N","","N","N","N","03-FEB-2014","10-DEC-2013","24-FEB-2014","N"],[422,"CDISCPILOT01","704","1332","Y","E01","RASH","RASH",null,"RASH",null,"HLT_0762",null,"HLGT_0198",null,"SKIN AND SUBCUTANEOUS TISSUE DISORDERS",null,2,"No","",1,"RECOVERED/RESOLVED","N","N","N","N","","N","N","N","24-FEB-2014","10-DEC-2013","24-FEB-2014","N"],[423,"CDISCPILOT01","704","1332","Y","E02","PRURITUS","ITCHING",null,"PRURITUS",null,"HLT_0778",null,"HLGT_0695",null,"SKIN AND SUBCUTANEOUS TISSUE DISORDERS",null,1,"No","",4,"NOT RECOVERED/NOT RESOLVED","N","N","N","N","","N","N","N","20-JAN-2014","18-JAN-2014","24-FEB-2014","N"],[424,"CDISCPILOT01","704","1332","Y","E02","PRURITUS","ITCHING",null,"PRURITUS",null,"HLT_0778",null,"HLGT_0695",null,"SKIN AND SUBCUTANEOUS TISSUE DISORDERS",null,1,"No","",4,"RECOVERED/RESOLVED","N","N","N","N","","N","N","N","24-FEB-2014","18-JAN-2014","24-FEB-2014","N"],[425,"CDISCPILOT01","704","1332","Y","E05","BURNING SENSATION","BURNING SENSATION",null,"BURNING SENSATION",null,"HLT_0775",null,"HLGT_0456",null,"NERVOUS SYSTEM DISORDERS",null,1,"No","",4,"NOT RECOVERED/NOT RESOLVED","N","N","N","N","","N","N","N","03-FEB-2014","03-FEB-2014","","Y"],[426,"CDISCPILOT01","704","1351","Y","E02","POLLAKIURIA","URINARY FREQUENCY",null,"POLLAKIURIA",null,"HLT_0393",null,"HLGT_0560",null,"RENAL AND URINARY DISORDERS",null,1,"No","",1,"NOT RECOVERED/NOT RESOLVED","N","N","N","N","","N","N","N","07-NOV-2013","27-OCT-2013","04-APR-2014","N"],[427,"CDISCPILOT01","704","1351","Y","E02","POLLAKIURIA","URINARY FREQUENCY",null,"POLLAKIURIA",null,"HLT_0393",null,"HLGT_0560",null,"RENAL AND URINARY DISORDERS",null,1,"No","",1,"RECOVERED/RESOLVED","N","N","N","N","","N","N","N","18-APR-2014","27-OCT-2013","04-APR-2014","N"],[428,"CDISCPILOT01","704","1351","Y","E03","FLATULENCE","GAS",null,"FLATULENCE",null,"HLT_0356",null,"HLGT_0504",null,"GASTROINTESTINAL DISORDERS",null,1,"No","",1,"NOT RECOVERED/NOT RESOLVED","N","N","N","N","","N","N","N","07-NOV-2013","27-OCT-2013","04-APR-2014","N"],[429,"CDISCPILOT01","704","1351","Y","E03","FLATULENCE","GAS",null,"FLATULENCE",null,"HLT_0356",null,"HLGT_0504",null,"GASTROINTESTINAL DISORDERS",null,1,"No","",1,"RECOVERED/RESOLVED","N","N","N","N","","N","N","N","18-APR-2014","27-OCT-2013","04-APR-2014","N"],[430,"CDISCPILOT01","704","1388","Y","E01","HEADACHE","HEADACHE",null,"HEADACHE",null,"HLT_0064",null,"HLGT_0344",null,"NERVOUS SYSTEM DISORDERS",null,2,"No","",1,"NOT RECOVERED/NOT RESOLVED","N","N","N","N","","N","N","N","27-MAR-2013","23-AUG-2012","","Y"],[431,"CDISCPILOT01","704","1435","Y","E08","PARKINSON'S DISEASE","DISEASE PARKINSON'S",null,"PARKINSON'S DISEASE",null,"HLT_0279",null,"HLGT_0313",null,"NERVOUS SYSTEM DISORDERS",null,1,"No","",1,"NOT RECOVERED/NOT RESOLVED","N","N","N","N","","N","N","N","12-JAN-2013","06-JAN-2013","","Y"],[432,"CDISCPILOT01","704","1445","Y","E06","COMPLETED SUICIDE","SUICIDE",null,"COMPLETED SUICIDE",null,"HLT_0625",null,"HLGT_0013",null,"PSYCHIATRIC DISORDERS",null,3,"No","",1,"FATAL","N","N","N","Y","01-NOV-2014","N","N","N","01-NOV-2014","31-OCT-2014","31-OCT-2014","N"],[433,"CDISCPILOT01","705","1011","N","","","",null,"",null,"",null,"",null,"",null,null,"","",null,"","","","","","","","","","","","",""],[434,"CDISCPILOT01","705","1018","N","","","",null,"",null,"",null,"",null,"",null,null,"","",null,"","","","","","","","","","","","",""],[435,"CDISCPILOT01","705","1031","Y","E02","RASH","RASH",null,"RASH",null,"HLT_0762",null,"HLGT_0198",null,"SKIN AND SUBCUTANEOUS TISSUE DISORDERS",null,1,"No","",3,"NOT RECOVERED/NOT RESOLVED","N","N","N","N","","N","N","N","25-DEC-2013","25-DEC-2013","","Y"],[436,"CDISCPILOT01","705","1058","N","","","",null,"",null,"",null,"",null,"",null,null,"","",null,"","","","","","","","","","","","",""],[437,"CDISCPILOT01","705","1059","Y","E02","ERYTHEMA","ERYTHEMA",null,"ERYTHEMA",null,"HLT_0284",null,"HLGT_0192",null,"SKIN AND SUBCUTANEOUS TISSUE DISORDERS",null,2,"No","",4,"NOT RECOVERED/NOT RESOLVED","N","N","N","N","","N","N","N","07-NOV-2013","02-NOV-2013","","Y"],[438,"CDISCPILOT01","705","1112","N","","","",null,"",null,"",null,"",null,"",null,null,"","",null,"","","","","","","","","","","","",""],[439,"CDISCPILOT01","705","1186","Y","E02","HYPERBILIRUBINAEMIA","HYPERBILIRUBINEMIA",null,"HYPERBILIRUBINAEMIA",null,"HLT_0478",null,"HLGT_0087",null,"HEPATOBILIARY DISORDERS",null,2,"No","",2,"NOT RECOVERED/NOT RESOLVED","N","N","N","N","","N","N","N","07-FEB-2014","26-JAN-2014","","Y"],[440,"CDISCPILOT01","705","1199","Y","E06","DYSPEPSIA","PYROSIS",null,"DYSPEPSIA",null,"HLT_0244",null,"HLGT_0716",null,"GASTROINTESTINAL DISORDERS",null,2,"No","",3,"NOT RECOVERED/NOT RESOLVED","N","N","N","N","","N","N","N","29-SEP-2013","17-SEP-2013","29-SEP-2013","N"],[441,"CDISCPILOT01","705","1199","Y","E06","DYSPEPSIA","PYROSIS",null,"DYSPEPSIA",null,"HLT_0244",null,"HLGT_0716",null,"GASTROINTESTINAL DISORDERS",null,2,"No","",3,"RECOVERED/RESOLVED","N","N","N","N","","N","N","N","29-SEP-2013","17-SEP-2013","29-SEP-2013","N"],[442,"CDISCPILOT01","705","1243","N","","","",null,"",null,"",null,"",null,"",null,null,"","",null,"","","","","","","","","","","","",""],[443,"CDISCPILOT01","705","1280","Y","E01","PRURITUS","PRURITUS",null,"PRURITUS",null,"HLT_0778",null,"HLGT_0695",null,"SKIN AND SUBCUTANEOUS TISSUE DISORDERS",null,1,"No","",3,"NOT RECOVERED/NOT RESOLVED","N","N","N","N","","N","N","N","16-MAY-2014","20-APR-2014","","Y"],[444,"CDISCPILOT01","705","1281","Y","E04","PRURITUS","PRURITUS",null,"PRURITUS",null,"HLT_0778",null,"HLGT_0695",null,"SKIN AND SUBCUTANEOUS TISSUE DISORDERS",null,1,"No","",3,"NOT RECOVERED/NOT RESOLVED","N","N","N","N","","N","N","N","18-FEB-2014","30-JAN-2014","","Y"],[445,"CDISCPILOT01","705","1281","Y","E04","PRURITUS","PRURITUS",null,"PRURITUS",null,"HLT_0778",null,"HLGT_0695",null,"SKIN AND SUBCUTANEOUS TISSUE DISORDERS",null,2,"No","",3,"NOT RECOVERED/NOT RESOLVED","N","N","N","N","","N","N","N","17-MAR-2014","30-JAN-2014","","Y"],[446,"CDISCPILOT01","705","1281","Y","E05","EXCORIATION","ABRASIONS",null,"EXCORIATION",null,"HLT_0738",null,"HLGT_0511",null,"INJURY, POISONING AND PROCEDURAL COMPLICATIONS",null,2,"No","",4,"NOT RECOVERED/NOT RESOLVED","N","N","N","N","","N","N","N","18-FEB-2014","30-JAN-2014","","Y"],[447,"CDISCPILOT01","705","1282","N","","","",null,"",null,"",null,"",null,"",null,null,"","",null,"","","","","","","","","","","","",""],[448,"CDISCPILOT01","705","1292","Y","E01","PRURITUS","ITCHY",null,"PRURITUS",null,"HLT_0778",null,"HLGT_0695",null,"SKIN AND SUBCUTANEOUS TISSUE DISORDERS",null,1,"No","",4,"NOT RECOVERED/NOT RESOLVED","N","N","N","N","","N","N","N","29-OCT-2013","28-OCT-2013","","Y"],[449,"CDISCPILOT01","705","1292","Y","E02","ERYTHEMA","ERYTHEMA",null,"ERYTHEMA",null,"HLT_0284",null,"HLGT_0192",null,"SKIN AND SUBCUTANEOUS TISSUE DISORDERS",null,2,"No","",4,"NOT RECOVERED/NOT RESOLVED","N","N","N","N","","N","N","N","03-MAR-2014","13-FEB-2014","","Y"],[450,"CDISCPILOT01","705","1303","Y","E02","PRURITUS","PRURITUS",null,"PRURITUS",null,"HLT_0778",null,"HLGT_0695",null,"SKIN AND SUBCUTANEOUS TISSUE DISORDERS",null,1,"No","",3,"NOT RECOVERED/NOT RESOLVED","N","N","N","N","","N","N","N","10-FEB-2014","05-FEB-2014","03-MAR-2014","N"],[451,"CDISCPILOT01","705","1303","Y","E02","PRURITUS","PRURITUS",null,"PRURITUS",null,"HLT_0778",null,"HLGT_0695",null,"SKIN AND SUBCUTANEOUS TISSUE DISORDERS",null,1,"No","",3,"RECOVERED/RESOLVED","N","N","N","N","","N","N","N","07-APR-2014","05-FEB-2014","03-MAR-2014","N"],[452,"CDISCPILOT01","705","1303","Y","E03","RASH","RASH",null,"RASH",null,"HLT_0762",null,"HLGT_0198",null,"SKIN AND SUBCUTANEOUS TISSUE DISORDERS",null,1,"No","",3,"NOT RECOVERED/NOT RESOLVED","N","N","N","N","","N","N","N","10-FEB-2014","05-FEB-2014","03-MAR-2014","N"],[453,"CDISCPILOT01","705","1303","Y","E03","RASH","RASH",null,"RASH",null,"HLT_0762",null,"HLGT_0198",null,"SKIN AND SUBCUTANEOUS TISSUE DISORDERS",null,2,"No","",3,"RECOVERED/RESOLVED","N","N","N","N","","N","N","N","07-APR-2014","05-FEB-2014","03-MAR-2014","N"],[454,"CDISCPILOT01","705","1310","Y","E02","RASH PRURITIC","PRURITIC RASH",null,"RASH PRURITIC",null,"HLT_0127",null,"HLGT_0753",null,"SKIN AND SUBCUTANEOUS TISSUE DISORDERS",null,2,"No","",3,"NOT RECOVERED/NOT RESOLVED","N","N","N","N","","N","N","N","22-NOV-2013","14-NOV-2013","","Y"],[455,"CDISCPILOT01","705","1310","Y","E03","WOUND HAEMORRHAGE","WOUND BLEEDING",null,"WOUND HAEMORRHAGE",null,"HLT_0154",null,"HLGT_0162",null,"VASCULAR DISORDERS",null,2,"No","",3,"NOT RECOVERED/NOT RESOLVED","N","N","N","N","","N","N","N","23-JAN-2014","09-JAN-2014","","Y"],[456,"CDISCPILOT01","705","1349","Y","E03","NAUSEA","NAUSEA",null,"NAUSEA",null,"HLT_0742",null,"HLGT_0326",null,"GASTROINTESTINAL DISORDERS",null,1,"No","",2,"RECOVERED/RESOLVED","N","N","N","N","","N","N","N","17-APR-2013","08-APR-2013","08-APR-2013","N"],[457,"CDISCPILOT01","705","1349","Y","E04","VOMITING","VOMITING",null,"VOMITING",null,"HLT_0016",null,"HLGT_0350",null,"GASTROINTESTINAL DISORDERS",null,1,"No","",2,"RECOVERED/RESOLVED","N","N","N","N","","N","N","N","17-APR-2013","11-APR-2013","11-APR-2013","N"],[458,"CDISCPILOT01","705","1349","Y","E05","VENTRICULAR HYPERTROPHY","LEFT VENTRICULAR HYPERTROPHY",null,"VENTRICULAR HYPERTROPHY",null,"HLT_0104",null,"HLGT_0259",null,"CARDIAC DISORDERS",null,1,"No","",2,"NOT RECOVERED/NOT RESOLVED","N","N","N","N","","N","N","N","25-AUG-2013","25-AUG-2013","","Y"],[459,"CDISCPILOT01","705","1349","Y","E06","ELECTROCARDIOGRAM ST SEGMENT DEPRESSION","ST SEGMENT DEPRESSED",null,"ELECTROCARDIOGRAM ST SEGMENT DEPRESSION",null,"HLT_0610",null,"HLGT_0220",null,"INVESTIGATIONS",null,1,"No","",2,"NOT RECOVERED/NOT RESOLVED","N","N","N","N","","N","N","N","25-AUG-2013","25-AUG-2013","","Y"],[460,"CDISCPILOT01","705","1377","N","","","",null,"",null,"",null,"",null,"",null,null,"","",null,"","","","","","","","","","","","",""],[461,"CDISCPILOT01","705","1382","N","","","",null,"",null,"",null,"",null,"",null,null,"","",null,"","","","","","","","","","","","",""],[462,"CDISCPILOT01","705","1393","Y","E01","ABDOMINAL PAIN","ABDOMINAL CRAMPS",null,"ABDOMINAL PAIN",null,"HLT_0217",null,"HLGT_0419",null,"GASTROINTESTINAL DISORDERS",null,1,"No","",2,"RECOVERED/RESOLVED","N","N","N","N","","N","N","N","27-SEP-2012","19-SEP-2012","24-SEP-2012","N"],[463,"CDISCPILOT01","705","1393","Y","E04","PRURITUS","PRURITUS",null,"PRURITUS",null,"HLT_0778",null,"HLGT_0695",null,"SKIN AND SUBCUTANEOUS TISSUE DISORDERS",null,1,"No","",4,"NOT RECOVERED/NOT RESOLVED","N","N","N","N","","N","N","N","05-DEC-2012","05-DEC-2011","20-FEB-2013","N"],[464,"CDISCPILOT01","705","1393","Y","E04","PRURITUS","PRURITUS",null,"PRURITUS",null,"HLT_0778",null,"HLGT_0695",null,"SKIN AND SUBCUTANEOUS TISSUE DISORDERS",null,1,"No","",4,"RECOVERED/RESOLVED","N","N","N","N","","N","N","N","25-APR-2013","05-DEC-2011","20-FEB-2013","N"],[465,"CDISCPILOT01","705","1393","Y","E05","COLON CANCER","COLON CANCER",null,"COLON CANCER",null,"HLT_0597",null,"HLGT_0339",null,"NEOPLASMS BENIGN, MALIGNANT AND UNSPECIFIED (INCL CYSTS AND POLYPS)",null,3,"No","",1,"RECOVERED/RESOLVED","Y","N","N","N","","Y","N","N","20-FEB-2013","21-JAN-2013","24-JAN-2013","N"],[466,"CDISCPILOT01","705","1421","N","","","",null,"",null,"",null,"",null,"",null,null,"","",null,"","","","","","","","","","","","",""],[467,"CDISCPILOT01","705","1431","Y","E04","ANXIETY","FEELING ANXIOUS",null,"ANXIETY",null,"HLT_0559",null,"HLGT_0570",null,"PSYCHIATRIC DISORDERS",null,1,"No","",3,"RECOVERED/RESOLVED","N","N","N","N","","N","N","N","07-JUL-2013","04-JUL-2013","06-JUL-2013","N"],[468,"CDISCPILOT01","705","1431","Y","E05","RASH ERYTHEMATOUS","ERYTHEMATOUS RASH",null,"RASH ERYTHEMATOUS",null,"HLT_0336",null,"HLGT_0701",null,"SKIN AND SUBCUTANEOUS TISSUE DISORDERS",null,1,"No","",4,"NOT RECOVERED/NOT RESOLVED","N","N","N","N","","N","N","N","23-JUN-2013","22-JUN-2013","","Y"],[469,"CDISCPILOT01","706","1041","Y","E01","DIARRHOEA","DIARRHEA",null,"DIARRHOEA",null,"HLT_0148",null,"HLGT_0588",null,"GASTROINTESTINAL DISORDERS",null,1,"No","",2,"RECOVERED/RESOLVED","N","N","N","N","","N","N","N","14-JAN-2014","07-JAN-2014","08-JAN-2014","N"],[470,"CDISCPILOT01","706","1041","Y","E02","ANXIETY","ANXIETY ATTACK",null,"ANXIETY",null,"HLT_0559",null,"HLGT_0570",null,"PSYCHIATRIC DISORDERS",null,2,"No","",2,"NOT RECOVERED/NOT RESOLVED","N","N","N","N","","N","N","N","14-JAN-2014","MAY-2012","","Y"],[471,"CDISCPILOT01","706","1041","Y","E02","ANXIETY","ANXIETY ATTACK",null,"ANXIETY",null,"HLT_0559",null,"HLGT_0570",null,"PSYCHIATRIC DISORDERS",null,1,"No","",2,"NOT RECOVERED/NOT RESOLVED","N","N","N","N","","N","N","N","06-MAY-2014","MAY-2012","","Y"],[472,"CDISCPILOT01","706","1041","Y","E03","IRRITABILITY","IRRITABILITY",null,"IRRITABILITY",null,"HLT_0627",null,"HLGT_0461",null,"PSYCHIATRIC DISORDERS",null,2,"No","",3,"NOT RECOVERED/NOT RESOLVED","N","N","N","N","","N","N","N","28-JAN-2014","15-JAN-2014","29-JUL-2014","N"],[473,"CDISCPILOT01","706","1041","Y","E03","IRRITABILITY","IRRITABILITY",null,"IRRITABILITY",null,"HLT_0627",null,"HLGT_0461",null,"PSYCHIATRIC DISORDERS",null,2,"No","",3,"RECOVERED/RESOLVED","N","N","N","N","","N","N","N","29-JUL-2014","15-JAN-2014","29-JUL-2014","N"],[474,"CDISCPILOT01","706","1041","Y","E07","EXCORIATION","ABRASIONS",null,"EXCORIATION",null,"HLT_0738",null,"HLGT_0511",null,"INJURY, POISONING AND PROCEDURAL COMPLICATIONS",null,1,"No","",1,"NOT RECOVERED/NOT RESOLVED","N","N","N","N","","N","N","N","14-JAN-2014","14-JAN-2014","28-JAN-2014","N"],[475,"CDISCPILOT01","706","1041","Y","E07","EXCORIATION","ABRASIONS",null,"EXCORIATION",null,"HLT_0738",null,"HLGT_0511",null,"INJURY, POISONING AND PROCEDURAL COMPLICATIONS",null,1,"No","",1,"RECOVERED/RESOLVED","N","N","N","N","","N","N","N","30-JAN-2014","14-JAN-2014","28-JAN-2014","N"],[476,"CDISCPILOT01","706","1041","Y","E08","PRURITUS","ITCHING",null,"PRURITUS",null,"HLT_0778",null,"HLGT_0695",null,"SKIN AND SUBCUTANEOUS TISSUE DISORDERS",null,1,"No","",3,"NOT RECOVERED/NOT RESOLVED","N","N","N","N","","N","N","N","04-MAR-2014","04-MAR-2014","29-JUL-2014","N"],[477,"CDISCPILOT01","706","1041","Y","E08","PRURITUS","ITCHING",null,"PRURITUS",null,"HLT_0778",null,"HLGT_0695",null,"SKIN AND SUBCUTANEOUS TISSUE DISORDERS",null,1,"No","",3,"RECOVERED/RESOLVED","N","N","N","N","","N","N","N","29-JUL-2014","04-MAR-2014","29-JUL-2014","N"],[478,"CDISCPILOT01","706","1049","Y","E01","SYNCOPE","FAINTING",null,"SYNCOPE",null,"HLT_0440",null,"HLGT_0310",null,"NERVOUS SYSTEM DISORDERS",null,2,"No","",3,"RECOVERED/RESOLVED","N","N","N","N","","N","N","N","11-JUN-2013","03-JUN-2013","03-JUN-2013","N"],[479,"CDISCPILOT01","706","1049","Y","E02","SYNCOPE","SYNCOPAL ATTACK",null,"SYNCOPE",null,"HLT_0440",null,"HLGT_0310",null,"NERVOUS SYSTEM DISORDERS",null,3,"No","",4,"RECOVERED/RESOLVED","N","N","N","N","","Y","N","N","25-JUN-2013","18-JUN-2013","18-JUN-2013","N"],[480,"CDISCPILOT01","706","1384","Y","E01","ERYTHEMA","ERYTHEMA",null,"ERYTHEMA",null,"HLT_0284",null,"HLGT_0192",null,"SKIN AND SUBCUTANEOUS TISSUE DISORDERS",null,2,"No","",4,"NOT RECOVERED/NOT RESOLVED","N","N","N","N","","N","N","N","29-SEP-2012","23-SEP-2012","29-SEP-2012","N"],[481,"CDISCPILOT01","706","1384","Y","E01","ERYTHEMA","ERYTHEMA",null,"ERYTHEMA",null,"HLT_0284",null,"HLGT_0192",null,"SKIN AND SUBCUTANEOUS TISSUE DISORDERS",null,2,"No","",4,"RECOVERED/RESOLVED","N","N","N","N","","N","N","N","22-JUN-2013","23-SEP-2012","29-SEP-2012","N"],[482,"CDISCPILOT01","706","1384","Y","E03","ERYTHEMA","ERYTHEMA",null,"ERYTHEMA",null,"HLT_0284",null,"HLGT_0192",null,"SKIN AND SUBCUTANEOUS TISSUE DISORDERS",null,2,"No","",1,"NOT RECOVERED/NOT RESOLVED","N","N","N","N","","N","N","N","15-SEP-2012","15-SEP-2012","29-SEP-2012","N"],[483,"CDISCPILOT01","706","1384","Y","E03","ERYTHEMA","ERYTHEMA",null,"ERYTHEMA",null,"HLT_0284",null,"HLGT_0192",null,"SKIN AND SUBCUTANEOUS TISSUE DISORDERS",null,2,"No","",1,"RECOVERED/RESOLVED","N","N","N","N","","N","N","N","22-JUN-2013","15-SEP-2012","29-SEP-2012","N"],[484,"CDISCPILOT01","706","1384","Y","E04","PRURITUS","PRURITIS",null,"PRURITUS",null,"HLT_0778",null,"HLGT_0695",null,"SKIN AND SUBCUTANEOUS TISSUE DISORDERS",null,2,"No","",1,"NOT RECOVERED/NOT RESOLVED","N","N","N","N","","N","N","N","15-SEP-2012","15-SEP-2012","29-SEP-2012","N"],[485,"CDISCPILOT01","706","1384","Y","E04","PRURITUS","PRURITIS",null,"PRURITUS",null,"HLT_0778",null,"HLGT_0695",null,"SKIN AND SUBCUTANEOUS TISSUE DISORDERS",null,2,"No","",1,"RECOVERED/RESOLVED","N","N","N","N","","N","N","N","22-JUN-2013","15-SEP-2012","29-SEP-2012","N"],[486,"CDISCPILOT01","706","1384","Y","E05","EXCORIATION","ABRASIONS",null,"EXCORIATION",null,"HLT_0738",null,"HLGT_0511",null,"INJURY, POISONING AND PROCEDURAL COMPLICATIONS",null,2,"No","",1,"NOT RECOVERED/NOT RESOLVED","N","N","N","N","","N","N","N","15-SEP-2012","15-SEP-2012","29-SEP-2012","N"],[487,"CDISCPILOT01","706","1384","Y","E05","EXCORIATION","ABRASIONS",null,"EXCORIATION",null,"HLT_0738",null,"HLGT_0511",null,"INJURY, POISONING AND PROCEDURAL COMPLICATIONS",null,2,"No","",1,"RECOVERED/RESOLVED","N","N","N","N","","N","N","N","22-JUN-2013","15-SEP-2012","29-SEP-2012","N"],[488,"CDISCPILOT01","706","1384","Y","E06","PRURITUS","PRURITIS",null,"PRURITUS",null,"HLT_0778",null,"HLGT_0695",null,"SKIN AND SUBCUTANEOUS TISSUE DISORDERS",null,2,"No","",4,"NOT RECOVERED/NOT RESOLVED","N","N","N","N","","N","N","N","29-SEP-2012","23-SEP-2012","29-SEP-2012","N"],[489,"CDISCPILOT01","706","1384","Y","E06","PRURITUS","PRURITIS",null,"PRURITUS",null,"HLT_0778",null,"HLGT_0695",null,"SKIN AND SUBCUTANEOUS TISSUE DISORDERS",null,2,"No","",4,"RECOVERED/RESOLVED","N","N","N","N","","N","N","N","22-JUN-2013","23-SEP-2012","29-SEP-2012","N"],[490,"CDISCPILOT01","707","1037","N","","","",null,"",null,"",null,"",null,"",null,null,"","",null,"","","","","","","","","","","","",""],[491,"CDISCPILOT01","707","1206","Y","E03","BLOOD CREATINE PHOSPHOKINASE INCREASED","CPK INCREASE",null,"BLOOD CREATINE PHOSPHOKINASE INCREASED",null,"HLT_0404",null,"HLGT_0008",null,"INVESTIGATIONS",null,2,"No","",3,"NOT RECOVERED/NOT RESOLVED","N","N","N","N","","N","N","N","27-NOV-2013","26-NOV-2013","09-DEC-2013","N"],[492,"CDISCPILOT01","707","1206","Y","E03","BLOOD CREATINE PHOSPHOKINASE INCREASED","CPK INCREASE",null,"BLOOD CREATINE PHOSPHOKINASE INCREASED",null,"HLT_0404",null,"HLGT_0008",null,"INVESTIGATIONS",null,2,"No","",3,"RECOVERED/RESOLVED","N","N","N","N","","N","N","N","23-DEC-2013","26-NOV-2013","09-DEC-2013","N"],[493,"CDISCPILOT01","707","1206","Y","E04","SINUS ARRHYTHMIA","SINUS ARRHYTHMIA",null,"SINUS ARRHYTHMIA",null,"HLT_0094",null,"HLGT_0630",null,"CARDIAC DISORDERS",null,1,"No","",3,"NOT RECOVERED/NOT RESOLVED","N","N","N","N","","N","N","N","25-NOV-2013","25-NOV-2013","23-DEC-2013","N"],[494,"CDISCPILOT01","707","1206","Y","E04","SINUS ARRHYTHMIA","SINUS ARRHYTHMIA",null,"SINUS ARRHYTHMIA",null,"HLT_0094",null,"HLGT_0630",null,"CARDIAC DISORDERS",null,1,"No","",3,"RECOVERED/RESOLVED","N","N","N","N","","N","N","N","19-JAN-2014","25-NOV-2013","23-DEC-2013","N"],[495,"CDISCPILOT01","707","1206","Y","E05","POSTNASAL DRIP","POSTNASAL DRIP",null,"POSTNASAL DRIP",null,"HLT_0172",null,"HLGT_0032",null,"RESPIRATORY, THORACIC AND MEDIASTINAL DISORDERS",null,1,"No","",1,"NOT RECOVERED/NOT RESOLVED","N","N","N","N","","N","N","N","09-DEC-2013","03-DEC-2013","10-DEC-2013","N"],[496,"CDISCPILOT01","707","1206","Y","E05","POSTNASAL DRIP","POSTNASAL DRIP",null,"POSTNASAL DRIP",null,"HLT_0172",null,"HLGT_0032",null,"RESPIRATORY, THORACIC AND MEDIASTINAL DISORDERS",null,1,"No","",1,"RECOVERED/RESOLVED","N","N","N","N","","N","N","N","23-DEC-2013","03-DEC-2013","10-DEC-2013","N"],[497,"CDISCPILOT01","707","1206","Y","E06","CONJUNCTIVITIS","CONJUNCTIVITIS",null,"CONJUNCTIVITIS",null,"HLT_0584",null,"HLGT_0335",null,"EYE DISORDERS",null,2,"No","",2,"NOT RECOVERED/NOT RESOLVED","N","N","N","N","","N","N","N","16-FEB-2014","08-FEB-2014","22-FEB-2014","N"],[498,"CDISCPILOT01","707","1206","Y","E06","CONJUNCTIVITIS","CONJUNCTIVITIS",null,"CONJUNCTIVITIS",null,"HLT_0584",null,"HLGT_0335",null,"EYE DISORDERS",null,2,"No","",2,"RECOVERED/RESOLVED","N","N","N","N","","N","N","N","16-MAR-2014","08-FEB-2014","22-FEB-2014","N"],[499,"CDISCPILOT01","707","1276","N","","","",null,"",null,"",null,"",null,"",null,null,"","",null,"","","","","","","","","","","","",""],[500,"CDISCPILOT01","707","1430","N","","","",null,"",null,"",null,"",null,"",null,null,"","",null,"","","","","","","","","","","","",""],[501,"CDISCPILOT01","707","1434","N","","","",null,"",null,"",null,"",null,"",null,null,"","",null,"","","","","","","","","","","","",""],[502,"CDISCPILOT01","708","1013","N","","","",null,"",null,"",null,"",null,"",null,null,"","",null,"","","","","","","","","","","","",""],[503,"CDISCPILOT01","708","1019","Y","E02","HEADACHE","FRONTAL HEADACHE",null,"HEADACHE",null,"HLT_0064",null,"HLGT_0344",null,"NERVOUS SYSTEM DISORDERS",null,3,"No","",3,"RECOVERED/RESOLVED","N","N","N","N","","N","N","N","23-JAN-2014","31-DEC-2013","31-DEC-2013","N"],[504,"CDISCPILOT01","708","1019","Y","E03","STUPOR","STUPOR",null,"STUPOR",null,"HLT_0595",null,"HLGT_0513",null,"NERVOUS SYSTEM DISORDERS",null,3,"No","",3,"RECOVERED/RESOLVED","N","N","N","N","","N","N","N","23-JAN-2014","01-JAN-2014","01-JAN-2014","N"],[505,"CDISCPILOT01","708","1019","Y","E04","TRANSIENT ISCHAEMIC ATTACK","TRANSIENT ISCHEMIC ATTACKS",null,"TRANSIENT ISCHAEMIC ATTACK",null,"HLT_0041",null,"HLGT_0433",null,"NERVOUS SYSTEM DISORDERS",null,3,"No","",3,"RECOVERED/RESOLVED","N","N","N","N","","N","N","N","23-JAN-2014","01-JAN-2014","01-JAN-2014","N"],[506,"CDISCPILOT01","708","1019","Y","E05","VISION BLURRED","BLURRED VISION",null,"VISION BLURRED",null,"HLT_0120",null,"HLGT_0598",null,"EYE DISORDERS",null,1,"No","",3,"RECOVERED/RESOLVED","N","N","N","N","","N","N","N","23-JAN-2014","01-JAN-2014","01-JAN-2014","N"],[507,"CDISCPILOT01","708","1019","Y","E06","DIZZINESS","DIZZINESS",null,"DIZZINESS",null,"HLT_0619",null,"HLGT_0751",null,"NERVOUS SYSTEM DISORDERS",null,1,"No","",3,"RECOVERED/RESOLVED","N","N","N","N","","N","N","N","23-JAN-2014","01-JAN-2014","01-JAN-2014","N"],[508,"CDISCPILOT01","708","1032","Y","E05","APPLICATION SITE VESICLES","APPLICATION SITE BLISTER",null,"APPLICATION SITE VESICLES",null,"HLT_0180",null,"HLGT_0576",null,"GENERAL DISORDERS AND ADMINISTRATION SITE CONDITIONS",null,2,"No","",4,"RECOVERED/RESOLVED","N","N","N","N","","N","N","N","09-MAR-2013","26-FEB-2013","09-MAR-2013","N"],[509,"CDISCPILOT01","708","1054","N","","","",null,"",null,"",null,"",null,"",null,null,"","",null,"","","","","","","","","","","","",""],[510,"CDISCPILOT01","708","1067","N","","","",null,"",null,"",null,"",null,"",null,null,"","",null,"","","","","","","","","","","","",""],[511,"CDISCPILOT01","708","1084","Y","E02","DIZZINESS","DIZZINESS",null,"DIZZINESS",null,"HLT_0619",null,"HLGT_0751",null,"NERVOUS SYSTEM DISORDERS",null,1,"No","",3,"NOT RECOVERED/NOT RESOLVED","N","N","N","N","","N","N","N","23-MAY-2013","23-MAY-2013","23-MAY-2013","N"],[512,"CDISCPILOT01","708","1084","Y","E02","DIZZINESS","DIZZINESS",null,"DIZZINESS",null,"HLT_0619",null,"HLGT_0751",null,"NERVOUS SYSTEM DISORDERS",null,1,"No","",3,"RECOVERED/RESOLVED","N","N","N","N","","N","N","N","09-JUN-2013","23-MAY-2013","23-MAY-2013","N"],[513,"CDISCPILOT01","708","1084","Y","E06","SINUS BRADYCARDIA","SINUS BRADYCARDIA",null,"SINUS BRADYCARDIA",null,"HLT_0644",null,"HLGT_0500",null,"CARDIAC DISORDERS",null,1,"No","",2,"NOT RECOVERED/NOT RESOLVED","N","N","N","N","","N","N","N","23-JUN-2013","23-JUN-2013","23-JUN-2013","N"],[514,"CDISCPILOT01","708","1084","Y","E06","SINUS BRADYCARDIA","SINUS BRADYCARDIA",null,"SINUS BRADYCARDIA",null,"HLT_0644",null,"HLGT_0500",null,"CARDIAC DISORDERS",null,1,"No","",2,"RECOVERED/RESOLVED","N","N","N","N","","N","N","N","07-JUL-2013","23-JUN-2013","23-JUN-2013","N"],[515,"CDISCPILOT01","708","1084","Y","E07","MYOCARDIAL INFARCTION","MYOCARDIAL INFARCTION",null,"MYOCARDIAL INFARCTION",null,"HLT_0649",null,"HLGT_0688",null,"CARDIAC DISORDERS",null,1,"No","",2,"NOT RECOVERED/NOT RESOLVED","N","N","N","N","","N","N","N","09-JUN-2013","09-JUN-2013","09-JUN-2013","N"],[516,"CDISCPILOT01","708","1084","Y","E07","MYOCARDIAL INFARCTION","MYOCARDIAL INFARCTION",null,"MYOCARDIAL INFARCTION",null,"HLT_0649",null,"HLGT_0688",null,"CARDIAC DISORDERS",null,1,"No","",2,"RECOVERED/RESOLVED","N","N","N","N","","N","N","N","11-JUN-2013","09-JUN-2013","09-JUN-2013","N"],[517,"CDISCPILOT01","708","1087","Y","E02","HEADACHE","HEADACHE",null,"HEADACHE",null,"HLT_0064",null,"HLGT_0344",null,"NERVOUS SYSTEM DISORDERS",null,1,"No","",1,"NOT RECOVERED/NOT RESOLVED","N","N","N","N","","N","N","N","16-FEB-2013","16-FEB-2013","","Y"],[518,"CDISCPILOT01","708","1087","Y","E03","DIZZINESS","DIZZINESS",null,"DIZZINESS",null,"HLT_0619",null,"HLGT_0751",null,"NERVOUS SYSTEM DISORDERS",null,1,"No","",3,"RECOVERED/RESOLVED","N","N","N","N","","N","N","N","16-FEB-2013","04-FEB-2013","08-FEB-2013","N"],[519,"CDISCPILOT01","708","1087","Y","E05","HEART RATE IRREGULAR","HEARTBEATS IRREGULAR",null,"HEART RATE IRREGULAR",null,"HLT_0765",null,"HLGT_0140",null,"INVESTIGATIONS",null,1,"No","",3,"NOT RECOVERED/NOT RESOLVED","N","N","N","N","","N","N","N","19-JAN-2013","19-JAN-2013","19-JAN-2013","N"],[520,"CDISCPILOT01","708","1087","Y","E05","HEART RATE IRREGULAR","HEARTBEATS IRREGULAR",null,"HEART RATE IRREGULAR",null,"HLT_0765",null,"HLGT_0140",null,"INVESTIGATIONS",null,1,"No","",3,"RECOVERED/RESOLVED","N","N","N","N","","N","N","N","16-FEB-2013","19-JAN-2013","19-JAN-2013","N"],[521,"CDISCPILOT01","708","1087","Y","E06","HEART RATE IRREGULAR","HEARTBEATS IRREGULAR",null,"HEART RATE IRREGULAR",null,"HLT_0765",null,"HLGT_0140",null,"INVESTIGATIONS",null,1,"No","",3,"NOT RECOVERED/NOT RESOLVED","N","N","N","N","","N","N","N","16-MAR-2013","16-MAR-2013","16-MAR-2013","N"],[522,"CDISCPILOT01","708","1087","Y","E06","HEART RATE IRREGULAR","HEARTBEATS IRREGULAR",null,"HEART RATE IRREGULAR",null,"HLT_0765",null,"HLGT_0140",null,"INVESTIGATIONS",null,1,"No","",3,"RECOVERED/RESOLVED","N","N","N","N","","N","N","N","10-APR-2013","16-MAR-2013","16-MAR-2013","N"],[523,"CDISCPILOT01","708","1104","N","","","",null,"",null,"",null,"",null,"",null,null,"","",null,"","","","","","","","","","","","",""],[524,"CDISCPILOT01","708","1158","Y","E05","AGITATION","AGITATION",null,"AGITATION",null,"HLT_0140",null,"HLGT_0170",null,"PSYCHIATRIC DISORDERS",null,1,"No","",2,"NOT RECOVERED/NOT RESOLVED","N","N","N","N","","N","N","N","26-FEB-2014","25-FEB-2014","","Y"],[525,"CDISCPILOT01","708","1158","Y","E07","ERYTHEMA","ERYTHEMA",null,"ERYTHEMA",null,"HLT_0284",null,"HLGT_0192",null,"SKIN AND SUBCUTANEOUS TISSUE DISORDERS",null,1,"No","",4,"RECOVERED/RESOLVED","N","N","N","N","","N","N","N","22-MAR-2014","22-MAR-2014","22-MAR-2014","N"],[526,"CDISCPILOT01","708","1171","N","","","",null,"",null,"",null,"",null,"",null,null,"","",null,"","","","","","","","","","","","",""],[527,"CDISCPILOT01","708","1178","Y","E03","FLANK PAIN","FLANK PAIN",null,"FLANK PAIN",null,"HLT_0484",null,"HLGT_0543",null,"MUSCULOSKELETAL AND CONNECTIVE TISSUE DISORDERS",null,1,"No","",1,"NOT RECOVERED/NOT RESOLVED","N","N","N","N","","N","N","N","19-DEC-2013","19-DEC-2013","","Y"],[528,"CDISCPILOT01","708","1178","Y","E05","NASOPHARYNGITIS","COLD",null,"NASOPHARYNGITIS",null,"HLT_0036",null,"HLGT_0709",null,"INFECTIONS AND INFESTATIONS",null,1,"No","",1,"RECOVERED/RESOLVED","N","N","N","N","","N","N","N","09-MAR-2014","01-MAR-2014","08-MAR-2014","N"],[529,"CDISCPILOT01","708","1178","Y","E06","APPLICATION SITE PRURITUS","APPLICATION SITE ITCHING",null,"APPLICATION SITE PRURITUS",null,"HLT_0317",null,"HLGT_0338",null,"GENERAL DISORDERS AND ADMINISTRATION SITE CONDITIONS",null,1,"No","",4,"NOT RECOVERED/NOT RESOLVED","N","N","N","N","","N","N","N","09-MAR-2014","09-MAR-2014","06-APR-2014","N"],[530,"CDISCPILOT01","708","1178","Y","E06","APPLICATION SITE PRURITUS","APPLICATION SITE ITCHING",null,"APPLICATION SITE PRURITUS",null,"HLT_0317",null,"HLGT_0338",null,"GENERAL DISORDERS AND ADMINISTRATION SITE CONDITIONS",null,1,"No","",4,"RECOVERED/RESOLVED","N","N","N","N","","N","N","N","06-APR-2014","09-MAR-2014","06-APR-2014","N"],[531,"CDISCPILOT01","708","1178","Y","E08","VENTRICULAR SEPTAL DEFECT","VENTRICULAR SEPTAL DEFECT",null,"VENTRICULAR SEPTAL DEFECT",null,"HLT_0589",null,"HLGT_0747",null,"CONGENITAL, FAMILIAL AND GENETIC DISORDERS",null,1,"No","",1,"NOT RECOVERED/NOT RESOLVED","N","N","N","N","","N","N","N","09-MAR-2014","09-MAR-2014","","Y"],[532,"CDISCPILOT01","708","1178","Y","E09","DIZZINESS","LIGHT-HEADED",null,"DIZZINESS",null,"HLT_0619",null,"HLGT_0751",null,"NERVOUS SYSTEM DISORDERS",null,3,"No","",3,"RECOVERED/RESOLVED","N","N","N","N","","Y","N","N","06-APR-2014","24-MAR-2014","26-MAR-2014","N"],[533,"CDISCPILOT01","708","1178","Y","E10","ATRIAL FIBRILLATION","ATRIAL FIBRILLATION",null,"ATRIAL FIBRILLATION",null,"HLT_0365",null,"HLGT_0012",null,"CARDIAC DISORDERS",null,3,"No","",3,"RECOVERED/RESOLVED","N","N","N","N","","Y","N","N","06-APR-2014","24-MAR-2014","26-MAR-2014","N"],[534,"CDISCPILOT01","708","1178","Y","E11","CYSTITIS","BLADDER INFECTION",null,"CYSTITIS",null,"HLT_0739",null,"HLGT_0129",null,"INFECTIONS AND INFESTATIONS",null,1,"No","",2,"RECOVERED/RESOLVED","N","N","N","N","","N","N","N","06-APR-2014","24-MAR-2014","28-MAR-2014","N"],[535,"CDISCPILOT01","708","1178","Y","E13","ALCOHOL USE","ALCOHOL USE",null,"ALCOHOL USE",null,"HLT_0138",null,"HLGT_0182",null,"SOCIAL CIRCUMSTANCES",null,1,"No","",1,"RECOVERED/RESOLVED","N","N","N","N","","N","N","N","06-APR-2014","24-MAR-2014","24-MAR-2014","N"],[536,"CDISCPILOT01","708","1184","N","","","",null,"",null,"",null,"",null,"",null,null,"","",null,"","","","","","","","","","","","",""],[537,"CDISCPILOT01","708","1213","Y","E03","ATRIAL FIBRILLATION","ATRIAL FIBRILLATION",null,"ATRIAL FIBRILLATION",null,"HLT_0365",null,"HLGT_0012",null,"CARDIAC DISORDERS",null,1,"No","",3,"NOT RECOVERED/NOT RESOLVED","N","N","N","N","","N","N","N","22-FEB-2013","22-FEB-2013","22-FEB-2013","N"],[538,"CDISCPILOT01","708","1213","Y","E03","ATRIAL FIBRILLATION","ATRIAL FIBRILLATION",null,"ATRIAL FIBRILLATION",null,"HLT_0365",null,"HLGT_0012",null,"CARDIAC DISORDERS",null,1,"No","",3,"RECOVERED/RESOLVED","N","N","N","N","","N","N","N","26-FEB-2013","22-FEB-2013","22-FEB-2013","N"],[539,"CDISCPILOT01","708","1216","Y","E01","APPLICATION SITE PRURITUS","APPLICATION SITE ITCHING",null,"APPLICATION SITE PRURITUS",null,"HLT_0317",null,"HLGT_0338",null,"GENERAL DISORDERS AND ADMINISTRATION SITE CONDITIONS",null,1,"No","",4,"NOT RECOVERED/NOT RESOLVED","N","N","N","N","","N","N","N","08-NOV-2012","06-NOV-2012","","Y"],[540,"CDISCPILOT01","708","1216","Y","E02","APPLICATION SITE SWELLING","APPLICATION SITE SWELLING",null,"APPLICATION SITE SWELLING",null,"HLT_0105",null,"HLGT_0236",null,"GENERAL DISORDERS AND ADMINISTRATION SITE CONDITIONS",null,1,"No","",4,"NOT RECOVERED/NOT RESOLVED","N","N","N","N","","N","N","N","22-NOV-2012","22-NOV-2012","","Y"],[541,"CDISCPILOT01","708","1216","Y","E05","APPLICATION SITE ERYTHEMA","APPLICATION SITE REDNESS",null,"APPLICATION SITE ERYTHEMA",null,"HLT_0617",null,"HLGT_0152",null,"GENERAL DISORDERS AND ADMINISTRATION SITE CONDITIONS",null,1,"No","",4,"NOT RECOVERED/NOT RESOLVED","N","N","N","N","","N","N","N","08-NOV-2012","06-NOV-2012","13-DEC-2012","N"],[542,"CDISCPILOT01","708","1216","Y","E05","APPLICATION SITE ERYTHEMA","APPLICATION SITE REDNESS",null,"APPLICATION SITE ERYTHEMA",null,"HLT_0617",null,"HLGT_0152",null,"GENERAL DISORDERS AND ADMINISTRATION SITE CONDITIONS",null,1,"No","",4,"RECOVERED/RESOLVED","N","N","N","N","","N","N","N","09-JAN-2013","06-NOV-2012","13-DEC-2012","N"],[543,"CDISCPILOT01","708","1236","N","","","",null,"",null,"",null,"",null,"",null,null,"","",null,"","","","","","","","","","","","",""],[544,"CDISCPILOT01","708","1242","N","","","",null,"",null,"",null,"",null,"",null,null,"","",null,"","","","","","","","","","","","",""],[545,"CDISCPILOT01","708","1253","Y","E02","HEART RATE INCREASED","HEART RATE INCREASED",null,"HEART RATE INCREASED",null,"HLT_0646",null,"HLGT_0673",null,"INVESTIGATIONS",null,1,"No","",3,"NOT RECOVERED/NOT RESOLVED","N","N","N","N","","N","N","N","07-MAY-2013","07-MAY-2013","10-MAY-2013","N"],[546,"CDISCPILOT01","708","1253","Y","E02","HEART RATE INCREASED","HEART RATE INCREASED",null,"HEART RATE INCREASED",null,"HLT_0646",null,"HLGT_0673",null,"INVESTIGATIONS",null,1,"No","",3,"RECOVERED/RESOLVED","N","N","N","N","","N","N","N","21-MAY-2013","07-MAY-2013","10-MAY-2013","N"],[547,"CDISCPILOT01","708","1253","Y","E03","COUGH","COUGH",null,"COUGH",null,"HLT_0701",null,"HLGT_0280",null,"RESPIRATORY, THORACIC AND MEDIASTINAL DISORDERS",null,1,"No","",1,"NOT RECOVERED/NOT RESOLVED","N","N","N","N","","N","N","N","07-MAY-2013","06-MAY-2013","16-MAY-2013","N"],[548,"CDISCPILOT01","708","1253","Y","E03","COUGH","COUGH",null,"COUGH",null,"HLT_0701",null,"HLGT_0280",null,"RESPIRATORY, THORACIC AND MEDIASTINAL DISORDERS",null,1,"No","",1,"RECOVERED/RESOLVED","N","N","N","N","","N","N","N","21-MAY-2013","06-MAY-2013","16-MAY-2013","N"],[549,"CDISCPILOT01","708","1253","Y","E04","CONJUNCTIVITIS","CONJUNCTIVITIS",null,"CONJUNCTIVITIS",null,"HLT_0584",null,"HLGT_0335",null,"EYE DISORDERS",null,1,"No","",1,"NOT RECOVERED/NOT RESOLVED","N","N","N","N","","N","N","N","07-MAY-2013","06-MAY-2013","16-MAY-2013","N"],[550,"CDISCPILOT01","708","1253","Y","E04","CONJUNCTIVITIS","CONJUNCTIVITIS",null,"CONJUNCTIVITIS",null,"HLT_0584",null,"HLGT_0335",null,"EYE DISORDERS",null,1,"No","",1,"RECOVERED/RESOLVED","N","N","N","N","","N","N","N","21-MAY-2013","06-MAY-2013","16-MAY-2013","N"],[551,"CDISCPILOT01","708","1253","Y","E05","DIZZINESS","DIZZINESS",null,"DIZZINESS",null,"HLT_0619",null,"HLGT_0751",null,"NERVOUS SYSTEM DISORDERS",null,1,"No","",3,"NOT RECOVERED/NOT RESOLVED","N","N","N","N","","N","N","N","07-JUN-2013","07-JUN-2013","07-JUN-2013","N"],[552,"CDISCPILOT01","708","1253","Y","E05","DIZZINESS","DIZZINESS",null,"DIZZINESS",null,"HLT_0619",null,"HLGT_0751",null,"NERVOUS SYSTEM DISORDERS",null,1,"No","",3,"RECOVERED/RESOLVED","N","N","N","N","","N","N","N","09-JUN-2013","07-JUN-2013","07-JUN-2013","N"],[553,"CDISCPILOT01","708","1272","Y","E05","VENTRICULAR EXTRASYSTOLES","VENTRICULAR BIGEMINY",null,"VENTRICULAR EXTRASYSTOLES",null,"HLT_0050",null,"HLGT_0594",null,"CARDIAC DISORDERS",null,1,"No","",2,"NOT RECOVERED/NOT RESOLVED","N","N","N","N","","N","N","N","21-FEB-2013","21-FEB-2013","20-MAR-2013","N"],[554,"CDISCPILOT01","708","1272","Y","E05","VENTRICULAR EXTRASYSTOLES","VENTRICULAR BIGEMINY",null,"VENTRICULAR EXTRASYSTOLES",null,"HLT_0050",null,"HLGT_0594",null,"CARDIAC DISORDERS",null,1,"No","",2,"RECOVERED/RESOLVED","N","N","N","N","","N","N","N","04-APR-2013","21-FEB-2013","20-MAR-2013","N"],[555,"CDISCPILOT01","708","1272","Y","E08","COUGH","COUGH",null,"COUGH",null,"HLT_0701",null,"HLGT_0280",null,"RESPIRATORY, THORACIC AND MEDIASTINAL DISORDERS",null,1,"No","",1,"NOT RECOVERED/NOT RESOLVED","N","N","N","N","","N","N","N","07-MAR-2013","01-MAR-2013","07-MAR-2013","N"],[556,"CDISCPILOT01","708","1272","Y","E08","COUGH","COUGH",null,"COUGH",null,"HLT_0701",null,"HLGT_0280",null,"RESPIRATORY, THORACIC AND MEDIASTINAL DISORDERS",null,1,"No","",1,"RECOVERED/RESOLVED","N","N","N","N","","N","N","N","09-MAR-2013","01-MAR-2013","07-MAR-2013","N"],[557,"CDISCPILOT01","708","1272","Y","E09","NASOPHARYNGITIS","COLD",null,"NASOPHARYNGITIS",null,"HLT_0036",null,"HLGT_0709",null,"INFECTIONS AND INFESTATIONS",null,1,"No","",1,"NOT RECOVERED/NOT RESOLVED","N","N","N","N","","N","N","N","07-MAR-2013","01-MAR-2013","07-MAR-2013","N"],[558,"CDISCPILOT01","708","1272","Y","E09","NASOPHARYNGITIS","COLD",null,"NASOPHARYNGITIS",null,"HLT_0036",null,"HLGT_0709",null,"INFECTIONS AND INFESTATIONS",null,1,"No","",1,"RECOVERED/RESOLVED","N","N","N","N","","N","N","N","09-MAR-2013","01-MAR-2013","07-MAR-2013","N"],[559,"CDISCPILOT01","708","1272","Y","E10","HEADACHE","HEADACHE",null,"HEADACHE",null,"HLT_0064",null,"HLGT_0344",null,"NERVOUS SYSTEM DISORDERS",null,1,"No","",1,"NOT RECOVERED/NOT RESOLVED","N","N","N","N","","N","N","N","07-MAR-2013","07-MAR-2013","07-MAR-2013","N"],[560,"CDISCPILOT01","708","1272","Y","E10","HEADACHE","HEADACHE",null,"HEADACHE",null,"HLT_0064",null,"HLGT_0344",null,"NERVOUS SYSTEM DISORDERS",null,1,"No","",1,"RECOVERED/RESOLVED","N","N","N","N","","N","N","N","09-MAR-2013","07-MAR-2013","07-MAR-2013","N"],[561,"CDISCPILOT01","708","1272","Y","E11","APPLICATION SITE DERMATITIS","APPLICATION SITE RASH",null,"APPLICATION SITE DERMATITIS",null,"HLT_0343",null,"HLGT_0241",null,"GENERAL DISORDERS AND ADMINISTRATION SITE CONDITIONS",null,1,"No","",4,"RECOVERED/RESOLVED","N","N","N","N","","N","N","N","07-MAR-2013","27-FEB-2013","27-FEB-2013","N"],[562,"CDISCPILOT01","708","1272","Y","E12","DIARRHOEA","DIARRHEA",null,"DIARRHOEA",null,"HLT_0148",null,"HLGT_0588",null,"GASTROINTESTINAL DISORDERS",null,1,"No","",1,"RECOVERED/RESOLVED","N","N","N","N","","N","N","N","21-FEB-2013","11-FEB-2013","11-FEB-2013","N"],[563,"CDISCPILOT01","708","1272","Y","E13","MUSCLE SPASMS","LEG CRAMPS",null,"MUSCLE SPASMS",null,"HLT_0078",null,"HLGT_0750",null,"MUSCULOSKELETAL AND CONNECTIVE TISSUE DISORDERS",null,3,"No","",1,"RECOVERED/RESOLVED","N","N","N","N","","N","N","N","21-FEB-2013","18-FEB-2013","18-FEB-2013","N"],[564,"CDISCPILOT01","708","1272","Y","E14","HOT FLUSH","HOT FLASHES",null,"HOT FLUSH",null,"HLT_0737",null,"HLGT_0773",null,"VASCULAR DISORDERS",null,1,"No","",1,"RECOVERED/RESOLVED","N","N","N","N","","N","N","N","20-MAR-2013","19-MAR-2013","19-MAR-2013","N"],[565,"CDISCPILOT01","708","1286","Y","E04","MYOCARDIAL INFARCTION","INFERIOR MYOCARDIAL INFARCTION",null,"MYOCARDIAL INFARCTION",null,"HLT_0649",null,"HLGT_0688",null,"CARDIAC DISORDERS",null,1,"No","",2,"NOT RECOVERED/NOT RESOLVED","N","N","N","N","","N","N","N","23-SEP-2013","23-SEP-2013","","Y"],[566,"CDISCPILOT01","708","1286","Y","E06","APPLICATION SITE PRURITUS","APPLICATION SITE ITCHING",null,"APPLICATION SITE PRURITUS",null,"HLT_0317",null,"HLGT_0338",null,"GENERAL DISORDERS AND ADMINISTRATION SITE CONDITIONS",null,1,"No","",4,"NOT RECOVERED/NOT RESOLVED","N","N","N","N","","N","N","N","23-SEP-2013","12-SEP-2013","","Y"],[567,"CDISCPILOT01","708","1286","Y","E08","ABDOMINAL PAIN","ABDOMINAL PAIN",null,"ABDOMINAL PAIN",null,"HLT_0217",null,"HLGT_0419",null,"GASTROINTESTINAL DISORDERS",null,1,"No","",2,"RECOVERED/RESOLVED","N","N","N","N","","N","N","N","23-FEB-2014","18-FEB-2014","18-FEB-2014","N"],[568,"CDISCPILOT01","708","1286","Y","E09","CONSTIPATION","CONSTIPATION",null,"CONSTIPATION",null,"HLT_0402",null,"HLGT_0635",null,"GASTROINTESTINAL DISORDERS",null,1,"No","",2,"RECOVERED/RESOLVED","N","N","N","N","","N","N","N","23-FEB-2014","18-FEB-2014","18-FEB-2014","N"],[569,"CDISCPILOT01","708","1296","Y","E03","ATRIAL HYPERTROPHY","LEFT ATRIAL HYPERTROPHY",null,"ATRIAL HYPERTROPHY",null,"HLT_0271",null,"HLGT_0067",null,"CARDIAC DISORDERS",null,1,"No","",2,"NOT RECOVERED/NOT RESOLVED","N","N","N","N","","N","N","N","27-JUN-2013","27-JUN-2013","27-JUN-2013","N"],[570,"CDISCPILOT01","708","1296","Y","E03","ATRIAL HYPERTROPHY","LEFT ATRIAL HYPERTROPHY",null,"ATRIAL HYPERTROPHY",null,"HLT_0271",null,"HLGT_0067",null,"CARDIAC DISORDERS",null,1,"No","",2,"RECOVERED/RESOLVED","N","N","N","N","","N","N","N","10-JUL-2013","27-JUN-2013","27-JUN-2013","N"],[571,"CDISCPILOT01","708","1296","Y","E04","APPLICATION SITE PRURITUS","APPLICATION SITE ITCHING",null,"APPLICATION SITE PRURITUS",null,"HLT_0317",null,"HLGT_0338",null,"GENERAL DISORDERS AND ADMINISTRATION SITE CONDITIONS",null,1,"No","",4,"NOT RECOVERED/NOT RESOLVED","N","N","N","N","","N","N","N","04-SEP-2013","04-SEP-2013","18-SEP-2013","N"],[572,"CDISCPILOT01","708","1296","Y","E04","APPLICATION SITE PRURITUS","APPLICATION SITE ITCHING",null,"APPLICATION SITE PRURITUS",null,"HLT_0317",null,"HLGT_0338",null,"GENERAL DISORDERS AND ADMINISTRATION SITE CONDITIONS",null,1,"No","",4,"RECOVERED/RESOLVED","N","N","N","N","","N","N","N","02-OCT-2013","04-SEP-2013","18-SEP-2013","N"],[573,"CDISCPILOT01","708","1296","Y","E05","APPLICATION SITE VESICLES","APPLICATION SITE BLISTER",null,"APPLICATION SITE VESICLES",null,"HLT_0180",null,"HLGT_0576",null,"GENERAL DISORDERS AND ADMINISTRATION SITE CONDITIONS",null,1,"No","",4,"NOT RECOVERED/NOT RESOLVED","N","N","N","N","","N","N","N","30-OCT-2013","04-OCT-2013","30-OCT-2013","N"],[574,"CDISCPILOT01","708","1296","Y","E05","APPLICATION SITE VESICLES","APPLICATION SITE BLISTER",null,"APPLICATION SITE VESICLES",null,"HLT_0180",null,"HLGT_0576",null,"GENERAL DISORDERS AND ADMINISTRATION SITE CONDITIONS",null,1,"No","",4,"RECOVERED/RESOLVED","N","N","N","N","","N","N","N","27-NOV-2013","04-OCT-2013","30-OCT-2013","N"],[575,"CDISCPILOT01","708","1296","Y","E07","PAIN IN EXTREMITY","PAIN IN THIGH",null,"PAIN IN EXTREMITY",null,"HLT_0213",null,"HLGT_0764",null,"MUSCULOSKELETAL AND CONNECTIVE TISSUE DISORDERS",null,1,"No","",2,"RECOVERED/RESOLVED","N","N","N","N","","N","N","N","12-DEC-2013","07-DEC-2013","07-DEC-2013","N"],[576,"CDISCPILOT01","708","1297","Y","E02","APPLICATION SITE PRURITUS","APPLICATION SITE ITCHING",null,"APPLICATION SITE PRURITUS",null,"HLT_0317",null,"HLGT_0338",null,"GENERAL DISORDERS AND ADMINISTRATION SITE CONDITIONS",null,1,"No","",4,"NOT RECOVERED/NOT RESOLVED","N","N","N","N","","N","N","N","16-APR-2013","02-APR-2013","","Y"],[577,"CDISCPILOT01","708","1297","Y","E03","APPLICATION SITE SWELLING","APPLICATION SITE SWELLING",null,"APPLICATION SITE SWELLING",null,"HLT_0105",null,"HLGT_0236",null,"GENERAL DISORDERS AND ADMINISTRATION SITE CONDITIONS",null,1,"No","",4,"NOT RECOVERED/NOT RESOLVED","N","N","N","N","","N","N","N","16-APR-2013","02-APR-2013","","Y"],[578,"CDISCPILOT01","708","1297","Y","E04","SINUS BRADYCARDIA","SINUS BRADYCARDIA",null,"SINUS BRADYCARDIA",null,"HLT_0644",null,"HLGT_0500",null,"CARDIAC DISORDERS",null,1,"No","",2,"NOT RECOVERED/NOT RESOLVED","N","N","N","N","","N","N","N","08-MAY-2013","08-MAY-2013","","Y"],[579,"CDISCPILOT01","708","1316","Y","E04","APPLICATION SITE ERYTHEMA","APPLICATION SITE REDNESS",null,"APPLICATION SITE ERYTHEMA",null,"HLT_0617",null,"HLGT_0152",null,"GENERAL DISORDERS AND ADMINISTRATION SITE CONDITIONS",null,1,"No","",4,"NOT RECOVERED/NOT RESOLVED","N","N","N","N","","N","N","N","15-FEB-2014","15-FEB-2014","","Y"],[580,"CDISCPILOT01","708","1316","Y","E05","HEADACHE","HEADACHE",null,"HEADACHE",null,"HLT_0064",null,"HLGT_0344",null,"NERVOUS SYSTEM DISORDERS",null,1,"No","",3,"NOT RECOVERED/NOT RESOLVED","N","N","N","N","","N","N","N","15-FEB-2014","29-JAN-2014","","Y"],[581,"CDISCPILOT01","708","1336","Y","E06","DIZZINESS","LIGHTHEADEDNESS",null,"DIZZINESS",null,"HLT_0619",null,"HLGT_0751",null,"NERVOUS SYSTEM DISORDERS",null,1,"No","",3,"RECOVERED/RESOLVED","N","N","N","N","","N","N","N","21-DEC-2012","18-DEC-2012","18-DEC-2012","N"],[582,"CDISCPILOT01","708","1336","Y","E08","APPLICATION SITE PRURITUS","APPLICATION SITE ITCHING",null,"APPLICATION SITE PRURITUS",null,"HLT_0317",null,"HLGT_0338",null,"GENERAL DISORDERS AND ADMINISTRATION SITE CONDITIONS",null,1,"No","",4,"RECOVERED/RESOLVED","N","N","N","N","","N","N","N","15-JAN-2013","12-JAN-2013","12-JAN-2013","N"],[583,"CDISCPILOT01","708","1336","Y","E09","DIZZINESS","LIGHT HEADEDNESS",null,"DIZZINESS",null,"HLT_0619",null,"HLGT_0751",null,"NERVOUS SYSTEM DISORDERS",null,1,"No","",3,"RECOVERED/RESOLVED","N","N","N","N","","N","N","N","27-FEB-2013","02-FEB-2013","02-FEB-2013","N"],[584,"CDISCPILOT01","708","1336","Y","E10","APPLICATION SITE PRURITUS","APPLICATION SITE ITCHING",null,"APPLICATION SITE PRURITUS",null,"HLT_0317",null,"HLGT_0338",null,"GENERAL DISORDERS AND ADMINISTRATION SITE CONDITIONS",null,1,"No","",4,"NOT RECOVERED/NOT RESOLVED","N","N","N","N","","N","N","N","23-APR-2013","10-APR-2013","05-JUN-2013","N"],[585,"CDISCPILOT01","708","1336","Y","E10","APPLICATION SITE PRURITUS","APPLICATION SITE ITCHING",null,"APPLICATION SITE PRURITUS",null,"HLT_0317",null,"HLGT_0338",null,"GENERAL DISORDERS AND ADMINISTRATION SITE CONDITIONS",null,1,"No","",4,"RECOVERED/RESOLVED","N","N","N","N","","N","N","N","05-JUL-2013","10-APR-2013","05-JUN-2013","N"],[586,"CDISCPILOT01","708","1336","Y","E11","APPLICATION SITE ERYTHEMA","APPLICATION SITE REDNESS",null,"APPLICATION SITE ERYTHEMA",null,"HLT_0617",null,"HLGT_0152",null,"GENERAL DISORDERS AND ADMINISTRATION SITE CONDITIONS",null,1,"No","",4,"NOT RECOVERED/NOT RESOLVED","N","N","N","N","","N","N","N","23-APR-2013","10-APR-2013","05-JUN-2013","N"],[587,"CDISCPILOT01","708","1336","Y","E11","APPLICATION SITE ERYTHEMA","APPLICATION SITE REDNESS",null,"APPLICATION SITE ERYTHEMA",null,"HLT_0617",null,"HLGT_0152",null,"GENERAL DISORDERS AND ADMINISTRATION SITE CONDITIONS",null,1,"No","",4,"RECOVERED/RESOLVED","N","N","N","N","","N","N","N","05-JUL-2013","10-APR-2013","05-JUN-2013","N"],[588,"CDISCPILOT01","708","1342","N","","","",null,"",null,"",null,"",null,"",null,null,"","",null,"","","","","","","","","","","","",""],[589,"CDISCPILOT01","708","1347","Y","E02","PRURITUS","ITCHING",null,"PRURITUS",null,"HLT_0778",null,"HLGT_0695",null,"SKIN AND SUBCUTANEOUS TISSUE DISORDERS",null,1,"No","",4,"NOT RECOVERED/NOT RESOLVED","N","N","N","N","","N","N","N","13-JUN-2013","13-JUN-2013","25-JUN-2013","N"],[590,"CDISCPILOT01","708","1347","Y","E02","PRURITUS","ITCHING",null,"PRURITUS",null,"HLT_0778",null,"HLGT_0695",null,"SKIN AND SUBCUTANEOUS TISSUE DISORDERS",null,1,"No","",4,"RECOVERED/RESOLVED","N","N","N","N","","N","N","N","02-AUG-2013","13-JUN-2013","25-JUN-2013","N"],[591,"CDISCPILOT01","708","1347","Y","E03","ERYTHEMA","ERYTHEMA",null,"ERYTHEMA",null,"HLT_0284",null,"HLGT_0192",null,"SKIN AND SUBCUTANEOUS TISSUE DISORDERS",null,2,"No","",4,"NOT RECOVERED/NOT RESOLVED","N","N","N","N","","N","N","N","13-JUN-2013","13-JUN-2013","25-JUN-2013","N"],[592,"CDISCPILOT01","708","1347","Y","E03","ERYTHEMA","ERYTHEMA",null,"ERYTHEMA",null,"HLT_0284",null,"HLGT_0192",null,"SKIN AND SUBCUTANEOUS TISSUE DISORDERS",null,2,"No","",4,"RECOVERED/RESOLVED","N","N","N","N","","N","N","N","02-AUG-2013","13-JUN-2013","25-JUN-2013","N"],[593,"CDISCPILOT01","708","1347","Y","E04","APPLICATION SITE ERYTHEMA","APPLICATION SITE REDNESS",null,"APPLICATION SITE ERYTHEMA",null,"HLT_0617",null,"HLGT_0152",null,"GENERAL DISORDERS AND ADMINISTRATION SITE CONDITIONS",null,2,"No","",4,"NOT RECOVERED/NOT RESOLVED","N","N","N","N","","N","N","N","13-JUN-2013","13-JUN-2013","25-JUN-2013","N"],[594,"CDISCPILOT01","708","1347","Y","E04","APPLICATION SITE ERYTHEMA","APPLICATION SITE REDNESS",null,"APPLICATION SITE ERYTHEMA",null,"HLT_0617",null,"HLGT_0152",null,"GENERAL DISORDERS AND ADMINISTRATION SITE CONDITIONS",null,2,"No","",4,"RECOVERED/RESOLVED","N","N","N","N","","N","N","N","02-AUG-2013","13-JUN-2013","25-JUN-2013","N"],[595,"CDISCPILOT01","708","1347","Y","E05","APPLICATION SITE SWELLING","APPLICATION SITE SWELLING",null,"APPLICATION SITE SWELLING",null,"HLT_0105",null,"HLGT_0236",null,"GENERAL DISORDERS AND ADMINISTRATION SITE CONDITIONS",null,2,"No","",4,"NOT RECOVERED/NOT RESOLVED","N","N","N","N","","N","N","N","13-JUN-2013","13-JUN-2013","25-JUN-2013","N"],[596,"CDISCPILOT01","708","1347","Y","E05","APPLICATION SITE SWELLING","APPLICATION SITE SWELLING",null,"APPLICATION SITE SWELLING",null,"HLT_0105",null,"HLGT_0236",null,"GENERAL DISORDERS AND ADMINISTRATION SITE CONDITIONS",null,2,"No","",4,"RECOVERED/RESOLVED","N","N","N","N","","N","N","N","02-AUG-2013","13-JUN-2013","25-JUN-2013","N"],[597,"CDISCPILOT01","708","1348","Y","E04","MYOCARDIAL INFARCTION","ANTEROSEPTAL INFARCTION",null,"MYOCARDIAL INFARCTION",null,"HLT_0649",null,"HLGT_0688",null,"CARDIAC DISORDERS",null,1,"No","",3,"NOT RECOVERED/NOT RESOLVED","N","N","N","N","","N","N","N","19-AUG-2013","18-AUG-2013","31-AUG-2013","N"],[598,"CDISCPILOT01","708","1348","Y","E04","MYOCARDIAL INFARCTION","ANTEROSEPTAL INFARCTION",null,"MYOCARDIAL INFARCTION",null,"HLT_0649",null,"HLGT_0688",null,"CARDIAC DISORDERS",null,1,"No","",3,"RECOVERED/RESOLVED","N","N","N","N","","N","N","N","02-SEP-2013","18-AUG-2013","31-AUG-2013","N"],[599,"CDISCPILOT01","708","1348","Y","E05","APPLICATION SITE PRURITUS","APPLICATION SITE ITCHING",null,"APPLICATION SITE PRURITUS",null,"HLT_0317",null,"HLGT_0338",null,"GENERAL DISORDERS AND ADMINISTRATION SITE CONDITIONS",null,1,"No","",4,"NOT RECOVERED/NOT RESOLVED","N","N","N","N","","N","N","N","01-DEC-2013","01-DEC-2013","","Y"],[600,"CDISCPILOT01","708","1352","N","","","",null,"",null,"",null,"",null,"",null,null,"","",null,"","","","","","","","","","","","",""],[601,"CDISCPILOT01","708","1353","Y","E09","DIZZINESS","DIZZINESS",null,"DIZZINESS",null,"HLT_0619",null,"HLGT_0751",null,"NERVOUS SYSTEM DISORDERS",null,1,"No","",2,"NOT RECOVERED/NOT RESOLVED","N","N","N","N","","N","N","N","18-AUG-2013","18-AUG-2013","10-SEP-2013","N"],[602,"CDISCPILOT01","708","1353","Y","E09","DIZZINESS","DIZZINESS",null,"DIZZINESS",null,"HLT_0619",null,"HLGT_0751",null,"NERVOUS SYSTEM DISORDERS",null,1,"No","",2,"RECOVERED/RESOLVED","N","N","N","N","","N","N","N","10-SEP-2013","18-AUG-2013","10-SEP-2013","N"],[603,"CDISCPILOT01","708","1353","Y","E10","HYPOTENSION","LOW BLOOD PRESSURE",null,"HYPOTENSION",null,"HLT_0761",null,"HLGT_0412",null,"VASCULAR DISORDERS",null,1,"No","",3,"RECOVERED/RESOLVED","N","N","N","N","","N","N","N","10-SEP-2013","28-AUG-2013","10-SEP-2013","N"],[604,"CDISCPILOT01","708","1372","Y","E03","ATRIOVENTRICULAR BLOCK SECOND DEGREE","AV BLOCK SECOND DEGREE",null,"ATRIOVENTRICULAR BLOCK SECOND DEGREE",null,"HLT_0415",null,"HLGT_0086",null,"CARDIAC DISORDERS",null,2,"No","",1,"NOT RECOVERED/NOT RESOLVED","N","N","N","N","","N","N","N","10-APR-2013","10-APR-2013","","Y"],[605,"CDISCPILOT01","708","1378","N","","","",null,"",null,"",null,"",null,"",null,null,"","",null,"","","","","","","","","","","","",""],[606,"CDISCPILOT01","708","1406","Y","E03","OEDEMA PERIPHERAL","SWELLING OF LEGS",null,"OEDEMA PERIPHERAL",null,"HLT_0661",null,"HLGT_0137",null,"GENERAL DISORDERS AND ADMINISTRATION SITE CONDITIONS",null,1,"No","",1,"NOT RECOVERED/NOT RESOLVED","N","N","N","N","","N","N","N","16-JUN-2014","16-JUN-2014","","Y"],[607,"CDISCPILOT01","708","1406","Y","E04","OEDEMA PERIPHERAL","SWELLING OF LEGS",null,"OEDEMA PERIPHERAL",null,"HLT_0661",null,"HLGT_0137",null,"GENERAL DISORDERS AND ADMINISTRATION SITE CONDITIONS",null,1,"No","",1,"NOT RECOVERED/NOT RESOLVED","N","N","N","N","","N","N","N","16-JUN-2014","16-JUN-2014","","Y"],[608,"CDISCPILOT01","708","1428","Y","E01","APPLICATION SITE PRURITUS","APPLICATION SITE ITCHING",null,"APPLICATION SITE PRURITUS",null,"HLT_0317",null,"HLGT_0338",null,"GENERAL DISORDERS AND ADMINISTRATION SITE CONDITIONS",null,2,"No","",4,"NOT RECOVERED/NOT RESOLVED","N","N","N","N","","N","N","N","10-DEC-2013","10-DEC-2013","21-DEC-2013","N"],[609,"CDISCPILOT01","708","1428","Y","E01","APPLICATION SITE PRURITUS","APPLICATION SITE ITCHING",null,"APPLICATION SITE PRURITUS",null,"HLT_0317",null,"HLGT_0338",null,"GENERAL DISORDERS AND ADMINISTRATION SITE CONDITIONS",null,3,"No","",4,"RECOVERED/RESOLVED","N","N","N","N","","N","N","N","26-DEC-2013","10-DEC-2013","21-DEC-2013","N"],[610,"CDISCPILOT01","708","1428","Y","E02","APPLICATION SITE ERYTHEMA","APPLICATION SITE REDNESS",null,"APPLICATION SITE ERYTHEMA",null,"HLT_0617",null,"HLGT_0152",null,"GENERAL DISORDERS AND ADMINISTRATION SITE CONDITIONS",null,2,"No","",4,"NOT RECOVERED/NOT RESOLVED","N","N","N","N","","N","N","N","10-DEC-2013","10-DEC-2013","21-DEC-2013","N"],[611,"CDISCPILOT01","708","1428","Y","E02","APPLICATION SITE ERYTHEMA","APPLICATION SITE REDNESS",null,"APPLICATION SITE ERYTHEMA",null,"HLT_0617",null,"HLGT_0152",null,"GENERAL DISORDERS AND ADMINISTRATION SITE CONDITIONS",null,3,"No","",4,"RECOVERED/RESOLVED","N","N","N","N","","N","N","N","26-DEC-2013","10-DEC-2013","21-DEC-2013","N"],[612,"CDISCPILOT01","708","1428","Y","E03","APPLICATION SITE WARMTH","APPLICATION SITE WARMTH",null,"APPLICATION SITE WARMTH",null,"HLT_0260",null,"HLGT_0301",null,"GENERAL DISORDERS AND ADMINISTRATION SITE CONDITIONS",null,2,"No","",4,"NOT RECOVERED/NOT RESOLVED","N","N","N","N","","N","N","N","10-DEC-2013","10-DEC-2013","21-DEC-2013","N"],[613,"CDISCPILOT01","708","1428","Y","E03","APPLICATION SITE WARMTH","APPLICATION SITE WARMTH",null,"APPLICATION SITE WARMTH",null,"HLT_0260",null,"HLGT_0301",null,"GENERAL DISORDERS AND ADMINISTRATION SITE CONDITIONS",null,3,"No","",4,"RECOVERED/RESOLVED","N","N","N","N","","N","N","N","26-DEC-2013","10-DEC-2013","21-DEC-2013","N"],[614,"CDISCPILOT01","708","1428","Y","E04","EPISTAXIS","NOSE BLEED",null,"EPISTAXIS",null,"HLT_0386",null,"HLGT_0577",null,"RESPIRATORY, THORACIC AND MEDIASTINAL DISORDERS",null,1,"No","",2,"RECOVERED/RESOLVED","N","N","N","N","","N","N","N","23-NOV-2013","22-NOV-2013","22-NOV-2013","N"],[615,"CDISCPILOT01","709","1001","N","","","",null,"",null,"",null,"",null,"",null,null,"","",null,"","","","","","","","","","","","",""],[616,"CDISCPILOT01","709","1007","Y","E02","APPLICATION SITE DERMATITIS","APPLICATION SITE RASH",null,"APPLICATION SITE DERMATITIS",null,"HLT_0343",null,"HLGT_0241",null,"GENERAL DISORDERS AND ADMINISTRATION SITE CONDITIONS",null,1,"No","",4,"NOT RECOVERED/NOT RESOLVED","N","N","N","N","","N","N","N","18-AUG-2012","16-AUG-2012","19-AUG-2012","N"],[617,"CDISCPILOT01","709","1007","Y","E02","APPLICATION SITE DERMATITIS","APPLICATION SITE RASH",null,"APPLICATION SITE DERMATITIS",null,"HLT_0343",null,"HLGT_0241",null,"GENERAL DISORDERS AND ADMINISTRATION SITE CONDITIONS",null,1,"No","",4,"RECOVERED/RESOLVED","N","N","N","N","","N","N","N","01-SEP-2012","16-AUG-2012","19-AUG-2012","N"],[618,"CDISCPILOT01","709","1007","Y","E03","APPLICATION SITE DERMATITIS","APPLICATION SITE RASH",null,"APPLICATION SITE DERMATITIS",null,"HLT_0343",null,"HLGT_0241",null,"GENERAL DISORDERS AND ADMINISTRATION SITE CONDITIONS",null,3,"No","",4,"NOT RECOVERED/NOT RESOLVED","N","N","N","N","","N","N","N","01-SEP-2012","21-AUG-2012","","Y"],[619,"CDISCPILOT01","709","1007","Y","E04","DIARRHOEA","DIARRHEA",null,"DIARRHOEA",null,"HLT_0148",null,"HLGT_0588",null,"GASTROINTESTINAL DISORDERS",null,1,"No","",3,"RECOVERED/RESOLVED","N","N","N","N","","N","N","N","01-SEP-2012","30-AUG-2012","30-AUG-2012","N"],[620,"CDISCPILOT01","709","1020","Y","E01","APPLICATION SITE DERMATITIS","APPLICATION SITE RASH",null,"APPLICATION SITE DERMATITIS",null,"HLT_0343",null,"HLGT_0241",null,"GENERAL DISORDERS AND ADMINISTRATION SITE CONDITIONS",null,1,"No","",4,"NOT RECOVERED/NOT RESOLVED","N","N","N","N","","N","N","N","27-DEC-2012","27-DEC-2012","","Y"],[621,"CDISCPILOT01","709","1020","Y","E02","DIARRHOEA","DIARRHEA",null,"DIARRHOEA",null,"HLT_0148",null,"HLGT_0588",null,"GASTROINTESTINAL DISORDERS",null,1,"No","",3,"RECOVERED/RESOLVED","N","N","N","N","","N","N","N","12-JAN-2013","03-JAN-2013","11-JAN-2013","N"],[622,"CDISCPILOT01","709","1020","Y","E03","ABDOMINAL PAIN","ABDOMINAL PAIN",null,"ABDOMINAL PAIN",null,"HLT_0217",null,"HLGT_0419",null,"GASTROINTESTINAL DISORDERS",null,1,"No","",3,"RECOVERED/RESOLVED","N","N","N","N","","N","N","N","12-JAN-2013","03-JAN-2013","11-JAN-2013","N"],[623,"CDISCPILOT01","709","1020","Y","E04","APPLICATION SITE PRURITUS","APPLICATION SITE ITCHING",null,"APPLICATION SITE PRURITUS",null,"HLT_0317",null,"HLGT_0338",null,"GENERAL DISORDERS AND ADMINISTRATION SITE CONDITIONS",null,1,"No","",4,"NOT RECOVERED/NOT RESOLVED","N","N","N","N","","N","N","N","26-JAN-2013","15-JAN-2013","","Y"],[624,"CDISCPILOT01","709","1029","Y","E07","MUSCLE SPASMS","CRAMP",null,"MUSCLE SPASMS",null,"HLT_0078",null,"HLGT_0750",null,"MUSCULOSKELETAL AND CONNECTIVE TISSUE DISORDERS",null,1,"No","",2,"NOT RECOVERED/NOT RESOLVED","N","N","N","N","","N","N","N","06-FEB-2013","24-JAN-2013","27-FEB-2013","N"],[625,"CDISCPILOT01","709","1029","Y","E07","MUSCLE SPASMS","CRAMP",null,"MUSCLE SPASMS",null,"HLT_0078",null,"HLGT_0750",null,"MUSCULOSKELETAL AND CONNECTIVE TISSUE DISORDERS",null,1,"No","",2,"RECOVERED/RESOLVED","N","N","N","N","","N","N","N","20-MAR-2013","24-JAN-2013","27-FEB-2013","N"],[626,"CDISCPILOT01","709","1029","Y","E08","APPLICATION SITE ERYTHEMA","APPLICATION SITE REDNESS",null,"APPLICATION SITE ERYTHEMA",null,"HLT_0617",null,"HLGT_0152",null,"GENERAL DISORDERS AND ADMINISTRATION SITE CONDITIONS",null,1,"No","",4,"NOT RECOVERED/NOT RESOLVED","N","N","N","N","","N","N","N","21-JAN-2013","17-JAN-2013","","Y"],[627,"CDISCPILOT01","709","1029","Y","E09","MYOCARDIAL INFARCTION","SEPTAL MYOCARDIAL INFARCTION",null,"MYOCARDIAL INFARCTION",null,"HLT_0649",null,"HLGT_0688",null,"CARDIAC DISORDERS",null,1,"No","",1,"NOT RECOVERED/NOT RESOLVED","N","N","N","N","","N","N","N","09-JAN-2013","09-JAN-2013","19-FEB-2013","N"],[628,"CDISCPILOT01","709","1029","Y","E09","MYOCARDIAL INFARCTION","SEPTAL MYOCARDIAL INFARCTION",null,"MYOCARDIAL INFARCTION",null,"HLT_0649",null,"HLGT_0688",null,"CARDIAC DISORDERS",null,1,"No","",1,"RECOVERED/RESOLVED","N","N","N","N","","N","N","N","20-MAR-2013","09-JAN-2013","19-FEB-2013","N"],[629,"CDISCPILOT01","709","1029","Y","E10","MYOCARDIAL INFARCTION","SEPTAL MYOCARDIAL INFARCTION",null,"MYOCARDIAL INFARCTION",null,"HLT_0649",null,"HLGT_0688",null,"CARDIAC DISORDERS",null,1,"No","",1,"NOT RECOVERED/NOT RESOLVED","N","N","N","N","","N","N","N","20-MAR-2013","20-MAR-2013","16-APR-2013","N"],[630,"CDISCPILOT01","709","1029","Y","E10","MYOCARDIAL INFARCTION","SEPTAL MYOCARDIAL INFARCTION",null,"MYOCARDIAL INFARCTION",null,"HLT_0649",null,"HLGT_0688",null,"CARDIAC DISORDERS",null,1,"No","",1,"RECOVERED/RESOLVED","N","N","N","N","","N","N","N","15-MAY-2013","20-MAR-2013","16-APR-2013","N"],[631,"CDISCPILOT01","709","1029","Y","E11","COUGH","COUGH",null,"COUGH",null,"HLT_0701",null,"HLGT_0280",null,"RESPIRATORY, THORACIC AND MEDIASTINAL DISORDERS",null,1,"No","",1,"NOT RECOVERED/NOT RESOLVED","N","N","N","N","","N","N","N","15-MAY-2013","12-MAY-2013","19-MAY-2013","N"],[632,"CDISCPILOT01","709","1029","Y","E11","COUGH","COUGH",null,"COUGH",null,"HLT_0701",null,"HLGT_0280",null,"RESPIRATORY, THORACIC AND MEDIASTINAL DISORDERS",null,1,"No","",1,"RECOVERED/RESOLVED","N","N","N","N","","N","N","N","12-JUN-2013","12-MAY-2013","19-MAY-2013","N"],[633,"CDISCPILOT01","709","1029","Y","E12","PHARYNGEAL ERYTHEMA","RED THROAT",null,"PHARYNGEAL ERYTHEMA",null,"HLT_0591",null,"HLGT_0398",null,"RESPIRATORY, THORACIC AND MEDIASTINAL DISORDERS",null,1,"No","",1,"NOT RECOVERED/NOT RESOLVED","N","N","N","N","","N","N","N","15-MAY-2013","12-MAY-2013","19-MAY-2013","N"],[634,"CDISCPILOT01","709","1029","Y","E12","PHARYNGEAL ERYTHEMA","RED THROAT",null,"PHARYNGEAL ERYTHEMA",null,"HLT_0591",null,"HLGT_0398",null,"RESPIRATORY, THORACIC AND MEDIASTINAL DISORDERS",null,1,"No","",1,"RECOVERED/RESOLVED","N","N","N","N","","N","N","N","12-JUN-2013","12-MAY-2013","19-MAY-2013","N"],[635,"CDISCPILOT01","709","1029","Y","E13","MYOCARDIAL INFARCTION","SEPTAL MYOCARDIAL INFARCTION",null,"MYOCARDIAL INFARCTION",null,"HLT_0649",null,"HLGT_0688",null,"CARDIAC DISORDERS",null,1,"No","",2,"NOT RECOVERED/NOT RESOLVED","N","N","N","N","","N","N","N","15-MAY-2013","15-MAY-2013","","Y"],[636,"CDISCPILOT01","709","1029","Y","E14","PRURITUS","ITCHING",null,"PRURITUS",null,"HLT_0778",null,"HLGT_0695",null,"SKIN AND SUBCUTANEOUS TISSUE DISORDERS",null,1,"No","",4,"NOT RECOVERED/NOT RESOLVED","N","N","N","N","","N","N","N","26-JUN-2013","19-JUN-2013","","Y"],[637,"CDISCPILOT01","709","1029","Y","E15","SINUS BRADYCARDIA","SINUS BRADYCARDIA",null,"SINUS BRADYCARDIA",null,"HLT_0644",null,"HLGT_0500",null,"CARDIAC DISORDERS",null,1,"No","",2,"NOT RECOVERED/NOT RESOLVED","N","N","N","N","","N","N","N","20-MAR-2013","20-MAR-2013","16-APR-2013","N"],[638,"CDISCPILOT01","709","1029","Y","E15","SINUS BRADYCARDIA","SINUS BRADYCARDIA",null,"SINUS BRADYCARDIA",null,"HLT_0644",null,"HLGT_0500",null,"CARDIAC DISORDERS",null,1,"No","",2,"RECOVERED/RESOLVED","N","N","N","N","","N","N","N","15-MAY-2013","20-MAR-2013","16-APR-2013","N"],[639,"CDISCPILOT01","709","1029","Y","E16","SINUS BRADYCARDIA","SINUS BRADYCARDIA",null,"SINUS BRADYCARDIA",null,"HLT_0644",null,"HLGT_0500",null,"CARDIAC DISORDERS",null,1,"No","",2,"NOT RECOVERED/NOT RESOLVED","N","N","N","N","","N","N","N","12-JUN-2013","12-JUN-2013","","Y"],[640,"CDISCPILOT01","709","1081","Y","E05","RASH","RASH",null,"RASH",null,"HLT_0762",null,"HLGT_0198",null,"SKIN AND SUBCUTANEOUS TISSUE DISORDERS",null,2,"No","",4,"NOT RECOVERED/NOT RESOLVED","N","N","N","N","","N","N","N","21-APR-2014","07-APR-2014","","Y"],[641,"CDISCPILOT01","709","1081","Y","E06","OEDEMA PERIPHERAL","PERIPHERAL SWELLING",null,"OEDEMA PERIPHERAL",null,"HLT_0661",null,"HLGT_0137",null,"GENERAL DISORDERS AND ADMINISTRATION SITE CONDITIONS",null,2,"No","",2,"NOT RECOVERED/NOT RESOLVED","N","N","N","N","","N","N","N","10-MAY-2014","01-MAY-2014","","Y"],[642,"CDISCPILOT01","709","1088","Y","E02","APPLICATION SITE DERMATITIS","APPLICATION SITE RASH",null,"APPLICATION SITE DERMATITIS",null,"HLT_0343",null,"HLGT_0241",null,"GENERAL DISORDERS AND ADMINISTRATION SITE CONDITIONS",null,1,"No","",4,"NOT RECOVERED/NOT RESOLVED","N","N","N","N","","N","N","N","08-MAY-2014","08-MAY-2014","","Y"],[643,"CDISCPILOT01","709","1088","Y","E04","RASH","RASH",null,"RASH",null,"HLT_0762",null,"HLGT_0198",null,"SKIN AND SUBCUTANEOUS TISSUE DISORDERS",null,1,"No","",1,"NOT RECOVERED/NOT RESOLVED","N","N","N","N","","N","N","N","02-AUG-2014","02-AUG-2014","","Y"],[644,"CDISCPILOT01","709","1099","Y","E01","NASOPHARYNGITIS","COLD SYMPTOMS",null,"NASOPHARYNGITIS",null,"HLT_0036",null,"HLGT_0709",null,"INFECTIONS AND INFESTATIONS",null,1,"No","",1,"NOT RECOVERED/NOT RESOLVED","N","N","N","N","","N","N","N","12-NOV-2013","06-NOV-2013","17-NOV-2013","N"],[645,"CDISCPILOT01","709","1099","Y","E01","NASOPHARYNGITIS","COLD SYMPTOMS",null,"NASOPHARYNGITIS",null,"HLT_0036",null,"HLGT_0709",null,"INFECTIONS AND INFESTATIONS",null,1,"No","",1,"RECOVERED/RESOLVED","N","N","N","N","","N","N","N","27-NOV-2013","06-NOV-2013","17-NOV-2013","N"],[646,"CDISCPILOT01","709","1099","Y","E02","APPLICATION SITE DERMATITIS","APPLICATION SITE RASH",null,"APPLICATION SITE DERMATITIS",null,"HLT_0343",null,"HLGT_0241",null,"GENERAL DISORDERS AND ADMINISTRATION SITE CONDITIONS",null,1,"No","",4,"NOT RECOVERED/NOT RESOLVED","N","N","N","N","","N","N","N","12-NOV-2013","12-NOV-2013","","Y"],[647,"CDISCPILOT01","709","1099","Y","E02","APPLICATION SITE DERMATITIS","APPLICATION SITE RASH",null,"APPLICATION SITE DERMATITIS",null,"HLT_0343",null,"HLGT_0241",null,"GENERAL DISORDERS AND ADMINISTRATION SITE CONDITIONS",null,2,"No","",4,"NOT RECOVERED/NOT RESOLVED","N","N","N","N","","N","N","N","26-DEC-2013","12-NOV-2013","","Y"],[648,"CDISCPILOT01","709","1099","Y","E04","APPLICATION SITE VESICLES","APPLICATION SITE VESICLES",null,"APPLICATION SITE VESICLES",null,"HLT_0180",null,"HLGT_0576",null,"GENERAL DISORDERS AND ADMINISTRATION SITE CONDITIONS",null,1,"No","",4,"NOT RECOVERED/NOT RESOLVED","N","N","N","N","","N","N","N","12-NOV-2013","12-NOV-2013","","Y"],[649,"CDISCPILOT01","709","1099","Y","E05","APPLICATION SITE PRURITUS","APPLICATION SITE ITCHING",null,"APPLICATION SITE PRURITUS",null,"HLT_0317",null,"HLGT_0338",null,"GENERAL DISORDERS AND ADMINISTRATION SITE CONDITIONS",null,1,"No","",4,"NOT RECOVERED/NOT RESOLVED","N","N","N","N","","N","N","N","12-NOV-2013","12-NOV-2013","","Y"],[650,"CDISCPILOT01","709","1099","Y","E05","APPLICATION SITE PRURITUS","APPLICATION SITE ITCHING",null,"APPLICATION SITE PRURITUS",null,"HLT_0317",null,"HLGT_0338",null,"GENERAL DISORDERS AND ADMINISTRATION SITE CONDITIONS",null,2,"No","",4,"NOT RECOVERED/NOT RESOLVED","N","N","N","N","","N","N","N","26-DEC-2013","12-NOV-2013","","Y"],[651,"CDISCPILOT01","709","1099","Y","E06","ACROCHORDON EXCISION","SKIN TAG REMOVAL",null,"ACROCHORDON EXCISION",null,"HLT_0629",null,"HLGT_0103",null,"SURGICAL AND MEDICAL PROCEDURES",null,1,"No","",1,"RECOVERED/RESOLVED","N","N","N","N","","N","N","N","11-APR-2014","23-MAR-2014","23-MAR-2014","N"],[652,"CDISCPILOT01","709","1102","Y","E01","APPLICATION SITE DERMATITIS","APPLICATION SITE RASH",null,"APPLICATION SITE DERMATITIS",null,"HLT_0343",null,"HLGT_0241",null,"GENERAL DISORDERS AND ADMINISTRATION SITE CONDITIONS",null,1,"No","",4,"NOT RECOVERED/NOT RESOLVED","N","N","N","N","","N","N","N","11-FEB-2013","11-FEB-2013","","Y"],[653,"CDISCPILOT01","709","1102","Y","E01","APPLICATION SITE DERMATITIS","APPLICATION SITE RASH",null,"APPLICATION SITE DERMATITIS",null,"HLT_0343",null,"HLGT_0241",null,"GENERAL DISORDERS AND ADMINISTRATION SITE CONDITIONS",null,2,"No","",4,"NOT RECOVERED/NOT RESOLVED","N","N","N","N","","N","N","N","12-MAR-2013","11-FEB-2013","","Y"],[654,"CDISCPILOT01","709","1102","Y","E02","APPLICATION SITE PRURITUS","APPLICATION SITE ITCHING",null,"APPLICATION SITE PRURITUS",null,"HLT_0317",null,"HLGT_0338",null,"GENERAL DISORDERS AND ADMINISTRATION SITE CONDITIONS",null,1,"No","",4,"NOT RECOVERED/NOT RESOLVED","N","N","N","N","","N","N","N","11-FEB-2013","11-FEB-2013","","Y"],[655,"CDISCPILOT01","709","1102","Y","E02","APPLICATION SITE PRURITUS","APPLICATION SITE ITCHING",null,"APPLICATION SITE PRURITUS",null,"HLT_0317",null,"HLGT_0338",null,"GENERAL DISORDERS AND ADMINISTRATION SITE CONDITIONS",null,2,"No","",4,"NOT RECOVERED/NOT RESOLVED","N","N","N","N","","N","N","N","12-MAR-2013","11-FEB-2013","","Y"],[656,"CDISCPILOT01","709","1102","Y","E04","APPLICATION SITE VESICLES","APPLICATION SITE BLISTER",null,"APPLICATION SITE VESICLES",null,"HLT_0180",null,"HLGT_0576",null,"GENERAL DISORDERS AND ADMINISTRATION SITE CONDITIONS",null,1,"No","",4,"RECOVERED/RESOLVED","N","N","N","N","","N","N","N","31-MAR-2013","26-MAR-2013","27-MAR-2013","N"],[657,"CDISCPILOT01","709","1102","Y","E05","DIZZINESS","DIZZINESS",null,"DIZZINESS",null,"HLT_0619",null,"HLGT_0751",null,"NERVOUS SYSTEM DISORDERS",null,1,"No","",3,"RECOVERED/RESOLVED","N","N","N","N","","N","N","N","31-MAR-2013","20-MAR-2013","26-MAR-2013","N"],[658,"CDISCPILOT01","709","1168","Y","E02","SKIN IRRITATION","IRRITATION SKIN",null,"SKIN IRRITATION",null,"HLT_0583",null,"HLGT_0384",null,"SKIN AND SUBCUTANEOUS TISSUE DISORDERS",null,1,"No","",4,"NOT RECOVERED/NOT RESOLVED","N","N","N","N","","N","N","N","17-AUG-2013","17-AUG-2013","06-SEP-2013","N"],[659,"CDISCPILOT01","709","1168","Y","E02","SKIN IRRITATION","IRRITATION SKIN",null,"SKIN IRRITATION",null,"HLT_0583",null,"HLGT_0384",null,"SKIN AND SUBCUTANEOUS TISSUE DISORDERS",null,1,"No","",4,"RECOVERED/RESOLVED","N","N","N","N","","N","N","N","13-SEP-2013","17-AUG-2013","06-SEP-2013","N"],[660,"CDISCPILOT01","709","1168","Y","E03","PRURITUS","ITCHY",null,"PRURITUS",null,"HLT_0778",null,"HLGT_0695",null,"SKIN AND SUBCUTANEOUS TISSUE DISORDERS",null,2,"No","",4,"NOT RECOVERED/NOT RESOLVED","N","N","N","N","","N","N","N","13-SEP-2013","06-SEP-2013","11-OCT-2013","N"],[661,"CDISCPILOT01","709","1168","Y","E03","PRURITUS","ITCHY",null,"PRURITUS",null,"HLT_0778",null,"HLGT_0695",null,"SKIN AND SUBCUTANEOUS TISSUE DISORDERS",null,2,"No","",4,"RECOVERED/RESOLVED","N","N","N","N","","N","N","N","01-NOV-2013","06-SEP-2013","11-OCT-2013","N"],[662,"CDISCPILOT01","709","1168","Y","E04","RASH","RASH",null,"RASH",null,"HLT_0762",null,"HLGT_0198",null,"SKIN AND SUBCUTANEOUS TISSUE DISORDERS",null,2,"No","",4,"NOT RECOVERED/NOT RESOLVED","N","N","N","N","","N","N","N","13-SEP-2013","06-SEP-2013","11-OCT-2013","N"],[663,"CDISCPILOT01","709","1168","Y","E04","RASH","RASH",null,"RASH",null,"HLT_0762",null,"HLGT_0198",null,"SKIN AND SUBCUTANEOUS TISSUE DISORDERS",null,2,"No","",4,"RECOVERED/RESOLVED","N","N","N","N","","N","N","N","01-NOV-2013","06-SEP-2013","11-OCT-2013","N"],[664,"CDISCPILOT01","709","1217","Y","E05","APPLICATION SITE DERMATITIS","APPLICATION SITE RASH",null,"APPLICATION SITE DERMATITIS",null,"HLT_0343",null,"HLGT_0241",null,"GENERAL DISORDERS AND ADMINISTRATION SITE CONDITIONS",null,1,"No","",4,"NOT RECOVERED/NOT RESOLVED","N","N","N","N","","N","N","N","30-MAR-2013","26-MAR-2013","18-JUN-2013","N"],[665,"CDISCPILOT01","709","1217","Y","E05","APPLICATION SITE DERMATITIS","APPLICATION SITE RASH",null,"APPLICATION SITE DERMATITIS",null,"HLT_0343",null,"HLGT_0241",null,"GENERAL DISORDERS AND ADMINISTRATION SITE CONDITIONS",null,2,"No","",4,"NOT RECOVERED/NOT RESOLVED","N","N","N","N","","N","N","N","29-APR-2013","26-MAR-2013","18-JUN-2013","N"],[666,"CDISCPILOT01","709","1217","Y","E05","APPLICATION SITE DERMATITIS","APPLICATION SITE RASH",null,"APPLICATION SITE DERMATITIS",null,"HLT_0343",null,"HLGT_0241",null,"GENERAL DISORDERS AND ADMINISTRATION SITE CONDITIONS",null,2,"No","",4,"RECOVERED/RESOLVED","N","N","N","N","","N","N","N","25-JUN-2013","26-MAR-2013","18-JUN-2013","N"],[667,"CDISCPILOT01","709","1217","Y","E06","COUGH","COUGH",null,"COUGH",null,"HLT_0701",null,"HLGT_0280",null,"RESPIRATORY, THORACIC AND MEDIASTINAL DISORDERS",null,1,"No","",1,"NOT RECOVERED/NOT RESOLVED","N","N","N","N","","N","N","N","30-MAR-2013","20-MAR-2013","","Y"],[668,"CDISCPILOT01","709","1217","Y","E07","DIZZINESS","DIZZINESS",null,"DIZZINESS",null,"HLT_0619",null,"HLGT_0751",null,"NERVOUS SYSTEM DISORDERS",null,1,"No","",3,"RECOVERED/RESOLVED","N","N","N","N","","N","N","N","30-MAR-2013","27-MAR-2013","27-MAR-2013","N"],[669,"CDISCPILOT01","709","1217","Y","E08","DIZZINESS","DIZZINESS",null,"DIZZINESS",null,"HLT_0619",null,"HLGT_0751",null,"NERVOUS SYSTEM DISORDERS",null,1,"No","",3,"NOT RECOVERED/NOT RESOLVED","N","N","N","N","","N","N","N","01-APR-2013","01-APR-2013","11-APR-2013","N"],[670,"CDISCPILOT01","709","1217","Y","E08","DIZZINESS","DIZZINESS",null,"DIZZINESS",null,"HLT_0619",null,"HLGT_0751",null,"NERVOUS SYSTEM DISORDERS",null,1,"No","",3,"RECOVERED/RESOLVED","N","N","N","N","","N","N","N","13-APR-2013","01-APR-2013","11-APR-2013","N"],[671,"CDISCPILOT01","709","1217","Y","E09","DIZZINESS","DIZZINESS",null,"DIZZINESS",null,"HLT_0619",null,"HLGT_0751",null,"NERVOUS SYSTEM DISORDERS",null,2,"No","",3,"RECOVERED/RESOLVED","N","N","N","N","","N","N","N","19-MAR-2013","06-MAR-2013","06-MAR-2013","N"],[672,"CDISCPILOT01","709","1217","Y","E10","PRURITUS","ITCHING",null,"PRURITUS",null,"HLT_0778",null,"HLGT_0695",null,"SKIN AND SUBCUTANEOUS TISSUE DISORDERS",null,2,"No","",4,"RECOVERED/RESOLVED","N","N","N","N","","N","N","N","25-JUN-2013","27-MAY-2013","18-JUN-2013","N"],[673,"CDISCPILOT01","709","1217","Y","E13","ELECTROCARDIOGRAM T WAVE INVERSION","T WAVE INVERTED",null,"ELECTROCARDIOGRAM T WAVE INVERSION",null,"HLT_0289",null,"HLGT_0130",null,"INVESTIGATIONS",null,1,"No","",1,"NOT RECOVERED/NOT RESOLVED","N","N","N","N","","N","N","N","30-MAR-2013","30-MAR-2013","","Y"],[674,"CDISCPILOT01","709","1217","Y","E14","HEADACHE","HEADACHE",null,"HEADACHE",null,"HLT_0064",null,"HLGT_0344",null,"NERVOUS SYSTEM DISORDERS",null,1,"No","",2,"RECOVERED/RESOLVED","N","N","N","N","","N","N","N","25-MAY-2013","17-MAY-2013","18-MAY-2013","N"],[675,"CDISCPILOT01","709","1224","N","","","",null,"",null,"",null,"",null,"",null,null,"","",null,"","","","","","","","","","","","",""],[676,"CDISCPILOT01","709","1237","N","","","",null,"",null,"",null,"",null,"",null,null,"","",null,"","","","","","","","","","","","",""],[677,"CDISCPILOT01","709","1238","Y","E02","DIARRHOEA","DIARRHEA",null,"DIARRHOEA",null,"HLT_0148",null,"HLGT_0588",null,"GASTROINTESTINAL DISORDERS",null,2,"No","",1,"RECOVERED/RESOLVED","N","N","N","N","","N","N","N","29-MAY-2013","28-MAY-2013","28-MAY-2013","N"],[678,"CDISCPILOT01","709","1238","Y","E04","COUGH","COUGH",null,"COUGH",null,"HLT_0701",null,"HLGT_0280",null,"RESPIRATORY, THORACIC AND MEDIASTINAL DISORDERS",null,2,"No","",1,"NOT RECOVERED/NOT RESOLVED","N","N","N","N","","N","N","N","19-JUN-2013","09-JUN-2013","","Y"],[679,"CDISCPILOT01","709","1238","Y","E05","HIP FRACTURE","HIP FRACTURE",null,"HIP FRACTURE",null,"HLT_0097",null,"HLGT_0131",null,"INJURY, POISONING AND PROCEDURAL COMPLICATIONS",null,2,"No","",1,"RECOVERED/RESOLVED","N","N","N","N","","N","N","N","19-JUN-2013","31-MAY-2013","31-MAY-2013","N"],[680,"CDISCPILOT01","709","1238","Y","E06","UPPER RESPIRATORY TRACT INFECTION","UPPER RESPIRATORY INFECTION",null,"UPPER RESPIRATORY TRACT INFECTION",null,"HLT_0520",null,"HLGT_0489",null,"INFECTIONS AND INFESTATIONS",null,2,"No","",1,"NOT RECOVERED/NOT RESOLVED","N","N","N","N","","N","N","N","19-JUN-2013","09-JUN-2013","","Y"],[681,"CDISCPILOT01","709","1238","Y","E07","APPLICATION SITE DERMATITI