{"creationDateTime":"2024-02-14T11:46:08","datasetJSONVersion":"1.0.0","fileOID":"CDISCPILOT01.cm","referenceData":{"studyOID":"CDISCPILOT01","metaDataVersionOID":"MDV.CDISCPILOT01","itemGroupData":{"IG.CM":{"records":7510,"name":"CM","label":"Concomitant Medications (CM)","items":[{"OID":"ITEMGROUPDATASEQ","name":"ITEMGROUPDATASEQ","label":"Record Identifier","type":"integer"},{"OID":"IT.CM.STUDYID","name":"STUDYID","label":"Study Identifier","type":"string","length":12,"displayFormat":"."},{"OID":"IT.CM.SITEID","name":"SITEID","label":"Study Site Identifier","type":"string","length":3,"displayFormat":"."},{"OID":"IT.CM.SUBJID","name":"SUBJID","label":"Subject Identifier for the Study","type":"string","length":4,"displayFormat":"."},{"OID":"IT.CM.CMSPID","name":"CMSPID","label":"Concomitant Meds Sponsor-Defined Identif","type":"string","length":2,"displayFormat":"."},{"OID":"IT.CM.CMTRT","name":"CMTRT","label":"Concomitant Medication Name","type":"string","length":44,"displayFormat":"."},{"OID":"IT.CM.CMDECOD","name":"CMDECOD","label":"Concomitant Meds Dictionary or Standardi","type":"string","length":24,"displayFormat":"."},{"OID":"IT.CM.CMINDC","name":"CMINDC","label":"Concomitant Meds Indication","type":"string","length":34,"displayFormat":"."},{"OID":"IT.CM.CMCLAS","name":"CMCLAS","label":"Concomitant Meds Class Description","type":"string","length":42,"displayFormat":"."},{"OID":"IT.CM.CMDOSE","name":"CMDOSE","label":"Concomitant Meds Dose","type":"float","length":8,"displayFormat":"."},{"OID":"IT.CM.CMDOSU","name":"CMDOSU","label":"Concomitant Meds Dose Unit","type":"string","length":17,"displayFormat":"."},{"OID":"IT.CM.CMDOSFRQ","name":"CMDOSFRQ","label":"Concomitant Meds Dosing Frequency per In","type":"string","length":15,"displayFormat":"."},{"OID":"IT.CM.CMROUTE","name":"CMROUTE","label":"Concomitant Meds Route of Administration","type":"string","length":200,"displayFormat":"."},{"OID":"IT.CM.VISIT","name":"VISIT","label":"Visit Name","type":"string","length":19,"displayFormat":"."},{"OID":"IT.CM.VISDAT","name":"VISDAT","label":"Visit Date","type":"string","length":11,"displayFormat":"."},{"OID":"IT.CM.CMSTDAT","name":"CMSTDAT","label":"Concomitant Meds Start Date","type":"string","length":11,"displayFormat":"."},{"OID":"IT.CM.CMENDAT","name":"CMENDAT","label":"Concomitant Meds End Date","type":"string","length":11,"displayFormat":"."},{"OID":"IT.CM.CMONGO","name":"CMONGO","label":"Ongoing Concomitant Meds","type":"string","length":1,"displayFormat":"."}],"itemData":[[1,"CDISCPILOT01","701","1015","1","ASPIRIN","ACETYLSALICYLIC ACID","","NERVOUS SYSTEM",1,"TABLET","PRN","ORAL","SCREENING 1","26-DEC-2013","2003","","Y"],[2,"CDISCPILOT01","701","1015","1","ASPIRIN","ACETYLSALICYLIC ACID","","NERVOUS SYSTEM",1,"TABLET","PRN","ORAL","SCREENING 2","31-DEC-2013","2003","","Y"],[3,"CDISCPILOT01","701","1015","1","ASPIRIN","ACETYLSALICYLIC ACID","","NERVOUS SYSTEM",1,"TABLET","PRN","ORAL","BASELINE","02-JAN-2014","2003","","Y"],[4,"CDISCPILOT01","701","1015","1","ASPIRIN","ACETYLSALICYLIC ACID","","NERVOUS SYSTEM",1,"TABLET","PRN","ORAL","WEEK 2","16-JAN-2014","2003","","Y"],[5,"CDISCPILOT01","701","1015","1","ASPIRIN","ACETYLSALICYLIC ACID","","NERVOUS SYSTEM",1,"TABLET","PRN","ORAL","WEEK 4","30-JAN-2014","2003","","Y"],[6,"CDISCPILOT01","701","1015","1","ASPIRIN","ACETYLSALICYLIC ACID","","NERVOUS SYSTEM",1,"TABLET","PRN","ORAL","AMBUL ECG REMOVAL","01-FEB-2014","2003","","Y"],[7,"CDISCPILOT01","701","1015","1","ASPIRIN","ACETYLSALICYLIC ACID","","NERVOUS SYSTEM",1,"TABLET","PRN","ORAL","WEEK 6","12-FEB-2014","2003","","Y"],[8,"CDISCPILOT01","701","1015","1","ASPIRIN","ACETYLSALICYLIC ACID","","NERVOUS SYSTEM",1,"TABLET","PRN","ORAL","WEEK 8","05-MAR-2014","2003","","Y"],[9,"CDISCPILOT01","701","1015","1","ASPIRIN","ACETYLSALICYLIC ACID","","NERVOUS SYSTEM",1,"TABLET","PRN","ORAL","WEEK 12","26-MAR-2014","2003","","Y"],[10,"CDISCPILOT01","701","1015","1","ASPIRIN","ACETYLSALICYLIC ACID","","NERVOUS SYSTEM",1,"TABLET","PRN","ORAL","WEEK 16","07-MAY-2014","2003","","Y"],[11,"CDISCPILOT01","701","1015","1","ASPIRIN","ACETYLSALICYLIC ACID","","NERVOUS SYSTEM",1,"TABLET","PRN","ORAL","WEEK 20","21-MAY-2014","2003","","Y"],[12,"CDISCPILOT01","701","1015","1","ASPIRIN","ACETYLSALICYLIC ACID","","NERVOUS SYSTEM",1,"TABLET","PRN","ORAL","WEEK 24","18-JUN-2014","2003","","Y"],[13,"CDISCPILOT01","701","1015","1","ASPIRIN","ACETYLSALICYLIC ACID","","NERVOUS SYSTEM",1,"TABLET","PRN","ORAL","WEEK 26","02-JUL-2014","2003","","Y"],[14,"CDISCPILOT01","701","1015","2","CALCIUM","CALCIUM","PROPHYLAXIS OR NON-THERAPEUTIC USE","ALIMENTARY TRACT AND METABOLISM",1,"TABLET","QD","ORAL","SCREENING 1","26-DEC-2013","2013","","Y"],[15,"CDISCPILOT01","701","1015","2","CALCIUM","CALCIUM","PROPHYLAXIS OR NON-THERAPEUTIC USE","ALIMENTARY TRACT AND METABOLISM",1,"TABLET","QD","ORAL","SCREENING 2","31-DEC-2013","2013","","Y"],[16,"CDISCPILOT01","701","1015","2","CALCIUM","CALCIUM","PROPHYLAXIS OR NON-THERAPEUTIC USE","ALIMENTARY TRACT AND METABOLISM",1,"TABLET","QD","ORAL","BASELINE","02-JAN-2014","2013","","Y"],[17,"CDISCPILOT01","701","1015","2","CALCIUM","CALCIUM","PROPHYLAXIS OR NON-THERAPEUTIC USE","ALIMENTARY TRACT AND METABOLISM",1,"TABLET","QD","ORAL","WEEK 2","16-JAN-2014","2013","","Y"],[18,"CDISCPILOT01","701","1015","2","CALCIUM","CALCIUM","PROPHYLAXIS OR NON-THERAPEUTIC USE","ALIMENTARY TRACT AND METABOLISM",1,"TABLET","QD","ORAL","WEEK 4","30-JAN-2014","2013","","Y"],[19,"CDISCPILOT01","701","1015","2","CALCIUM","CALCIUM","PROPHYLAXIS OR NON-THERAPEUTIC USE","ALIMENTARY TRACT AND METABOLISM",1,"TABLET","QD","ORAL","AMBUL ECG REMOVAL","01-FEB-2014","2013","","Y"],[20,"CDISCPILOT01","701","1015","2","CALCIUM","CALCIUM","PROPHYLAXIS OR NON-THERAPEUTIC USE","ALIMENTARY TRACT AND METABOLISM",1,"TABLET","QD","ORAL","WEEK 6","12-FEB-2014","2013","","Y"],[21,"CDISCPILOT01","701","1015","2","CALCIUM","CALCIUM","PROPHYLAXIS OR NON-THERAPEUTIC USE","ALIMENTARY TRACT AND METABOLISM",1,"TABLET","QD","ORAL","WEEK 8","05-MAR-2014","2013","","Y"],[22,"CDISCPILOT01","701","1015","2","CALCIUM","CALCIUM","PROPHYLAXIS OR NON-THERAPEUTIC USE","ALIMENTARY TRACT AND METABOLISM",1,"TABLET","QD","ORAL","WEEK 12","26-MAR-2014","2013","","Y"],[23,"CDISCPILOT01","701","1015","2","CALCIUM","CALCIUM","PROPHYLAXIS OR NON-THERAPEUTIC USE","ALIMENTARY TRACT AND METABOLISM",1,"TABLET","QD","ORAL","WEEK 16","07-MAY-2014","2013","","Y"],[24,"CDISCPILOT01","701","1015","2","CALCIUM","CALCIUM","PROPHYLAXIS OR NON-THERAPEUTIC USE","ALIMENTARY TRACT AND METABOLISM",1,"TABLET","QD","ORAL","WEEK 20","21-MAY-2014","2013","","Y"],[25,"CDISCPILOT01","701","1015","2","CALCIUM","CALCIUM","PROPHYLAXIS OR NON-THERAPEUTIC USE","ALIMENTARY TRACT AND METABOLISM",1,"TABLET","QD","ORAL","WEEK 24","18-JUN-2014","2013","","Y"],[26,"CDISCPILOT01","701","1015","2","CALCIUM","CALCIUM","PROPHYLAXIS OR NON-THERAPEUTIC USE","ALIMENTARY TRACT AND METABOLISM",1,"TABLET","QD","ORAL","WEEK 26","02-JUL-2014","2013","","Y"],[27,"CDISCPILOT01","701","1015","3","PREMARIN","ESTROGENS CONJUGATED","PROPHYLAXIS OR NON-THERAPEUTIC USE","GENITO URINARY SYSTEM AND SEX HORMONES",0.625,"mg","QD","ORAL","SCREENING 1","26-DEC-2013","2006","","Y"],[28,"CDISCPILOT01","701","1015","3","PREMARIN","ESTROGENS CONJUGATED","PROPHYLAXIS OR NON-THERAPEUTIC USE","GENITO URINARY SYSTEM AND SEX HORMONES",0.625,"mg","QD","ORAL","SCREENING 2","31-DEC-2013","2006","","Y"],[29,"CDISCPILOT01","701","1015","3","PREMARIN","ESTROGENS CONJUGATED","PROPHYLAXIS OR NON-THERAPEUTIC USE","GENITO URINARY SYSTEM AND SEX HORMONES",0.625,"mg","QD","ORAL","BASELINE","02-JAN-2014","2006","","Y"],[30,"CDISCPILOT01","701","1015","3","PREMARIN","ESTROGENS CONJUGATED","PROPHYLAXIS OR NON-THERAPEUTIC USE","GENITO URINARY SYSTEM AND SEX HORMONES",0.625,"mg","QD","ORAL","WEEK 2","16-JAN-2014","2006","","Y"],[31,"CDISCPILOT01","701","1015","3","PREMARIN","ESTROGENS CONJUGATED","PROPHYLAXIS OR NON-THERAPEUTIC USE","GENITO URINARY SYSTEM AND SEX HORMONES",0.625,"mg","QD","ORAL","WEEK 4","30-JAN-2014","2006","","Y"],[32,"CDISCPILOT01","701","1015","3","PREMARIN","ESTROGENS CONJUGATED","PROPHYLAXIS OR NON-THERAPEUTIC USE","GENITO URINARY SYSTEM AND SEX HORMONES",0.625,"mg","QD","ORAL","AMBUL ECG REMOVAL","01-FEB-2014","2006","","Y"],[33,"CDISCPILOT01","701","1015","3","PREMARIN","ESTROGENS CONJUGATED","PROPHYLAXIS OR NON-THERAPEUTIC USE","GENITO URINARY SYSTEM AND SEX HORMONES",0.625,"mg","QD","ORAL","WEEK 6","12-FEB-2014","2006","","Y"],[34,"CDISCPILOT01","701","1015","3","PREMARIN","ESTROGENS CONJUGATED","PROPHYLAXIS OR NON-THERAPEUTIC USE","GENITO URINARY SYSTEM AND SEX HORMONES",0.625,"mg","QD","ORAL","WEEK 8","05-MAR-2014","2006","","Y"],[35,"CDISCPILOT01","701","1015","3","PREMARIN","ESTROGENS CONJUGATED","PROPHYLAXIS OR NON-THERAPEUTIC USE","GENITO URINARY SYSTEM AND SEX HORMONES",0.625,"mg","QD","ORAL","WEEK 12","26-MAR-2014","2006","","Y"],[36,"CDISCPILOT01","701","1015","3","PREMARIN","ESTROGENS CONJUGATED","PROPHYLAXIS OR NON-THERAPEUTIC USE","GENITO URINARY SYSTEM AND SEX HORMONES",0.625,"mg","QD","ORAL","WEEK 16","07-MAY-2014","2006","","Y"],[37,"CDISCPILOT01","701","1015","3","PREMARIN","ESTROGENS CONJUGATED","PROPHYLAXIS OR NON-THERAPEUTIC USE","GENITO URINARY SYSTEM AND SEX HORMONES",0.625,"mg","QD","ORAL","WEEK 20","21-MAY-2014","2006","","Y"],[38,"CDISCPILOT01","701","1015","3","PREMARIN","ESTROGENS CONJUGATED","PROPHYLAXIS OR NON-THERAPEUTIC USE","GENITO URINARY SYSTEM AND SEX HORMONES",0.625,"mg","QD","ORAL","WEEK 24","18-JUN-2014","2006","","Y"],[39,"CDISCPILOT01","701","1015","3","PREMARIN","ESTROGENS CONJUGATED","PROPHYLAXIS OR NON-THERAPEUTIC USE","GENITO URINARY SYSTEM AND SEX HORMONES",0.625,"mg","QD","ORAL","WEEK 26","02-JUL-2014","2006","","Y"],[40,"CDISCPILOT01","701","1015","4","TYLENOL","UNCODED","","UNCODED",1,"TABLET","PRN","ORAL","SCREENING 1","26-DEC-2013","2003","","Y"],[41,"CDISCPILOT01","701","1015","4","TYLENOL","UNCODED","","UNCODED",1,"TABLET","PRN","ORAL","SCREENING 2","31-DEC-2013","2003","","Y"],[42,"CDISCPILOT01","701","1015","4","TYLENOL","UNCODED","","UNCODED",1,"TABLET","PRN","ORAL","BASELINE","02-JAN-2014","2003","","Y"],[43,"CDISCPILOT01","701","1015","4","TYLENOL","UNCODED","","UNCODED",1,"TABLET","PRN","ORAL","WEEK 2","16-JAN-2014","2003","","Y"],[44,"CDISCPILOT01","701","1015","4","TYLENOL","UNCODED","","UNCODED",1,"TABLET","PRN","ORAL","WEEK 4","30-JAN-2014","2003","","Y"],[45,"CDISCPILOT01","701","1015","4","TYLENOL","UNCODED","","UNCODED",1,"TABLET","PRN","ORAL","AMBUL ECG REMOVAL","01-FEB-2014","2003","","Y"],[46,"CDISCPILOT01","701","1015","4","TYLENOL","UNCODED","","UNCODED",1,"TABLET","PRN","ORAL","WEEK 6","12-FEB-2014","2003","","Y"],[47,"CDISCPILOT01","701","1015","4","TYLENOL","UNCODED","","UNCODED",1,"TABLET","PRN","ORAL","WEEK 8","05-MAR-2014","2003","","Y"],[48,"CDISCPILOT01","701","1015","4","TYLENOL","UNCODED","","UNCODED",1,"TABLET","PRN","ORAL","WEEK 12","26-MAR-2014","2003","","Y"],[49,"CDISCPILOT01","701","1015","4","TYLENOL","UNCODED","","UNCODED",1,"TABLET","PRN","ORAL","WEEK 16","07-MAY-2014","2003","","Y"],[50,"CDISCPILOT01","701","1015","4","TYLENOL","UNCODED","","UNCODED",1,"TABLET","PRN","ORAL","WEEK 20","21-MAY-2014","2003","","Y"],[51,"CDISCPILOT01","701","1015","4","TYLENOL","UNCODED","","UNCODED",1,"TABLET","PRN","ORAL","WEEK 24","18-JUN-2014","2003","","Y"],[52,"CDISCPILOT01","701","1015","4","TYLENOL","UNCODED","","UNCODED",1,"TABLET","PRN","ORAL","WEEK 26","02-JUL-2014","2003","","Y"],[53,"CDISCPILOT01","701","1015","5","NEOSPORIN /USA/","UNCODED","","UNCODED",1,"VIAL","PRN","TOPICAL","WEEK 2","16-JAN-2014","03-JAN-2014","","Y"],[54,"CDISCPILOT01","701","1015","5","NEOSPORIN /USA/","UNCODED","","UNCODED",1,"VIAL","PRN","TOPICAL","WEEK 4","30-JAN-2014","03-JAN-2014","","Y"],[55,"CDISCPILOT01","701","1015","5","NEOSPORIN /USA/","UNCODED","","UNCODED",1,"VIAL","PRN","TOPICAL","AMBUL ECG REMOVAL","01-FEB-2014","03-JAN-2014","","Y"],[56,"CDISCPILOT01","701","1015","5","NEOSPORIN /USA/","UNCODED","","UNCODED",1,"VIAL","PRN","TOPICAL","WEEK 6","12-FEB-2014","03-JAN-2014","","Y"],[57,"CDISCPILOT01","701","1015","5","NEOSPORIN /USA/","UNCODED","","UNCODED",1,"VIAL","PRN","TOPICAL","WEEK 8","05-MAR-2014","03-JAN-2014","","Y"],[58,"CDISCPILOT01","701","1015","5","NEOSPORIN /USA/","UNCODED","","UNCODED",1,"VIAL","PRN","TOPICAL","WEEK 12","26-MAR-2014","03-JAN-2014","","Y"],[59,"CDISCPILOT01","701","1015","5","NEOSPORIN /USA/","UNCODED","","UNCODED",1,"VIAL","PRN","TOPICAL","WEEK 16","07-MAY-2014","03-JAN-2014","","Y"],[60,"CDISCPILOT01","701","1015","5","NEOSPORIN /USA/","UNCODED","","UNCODED",1,"VIAL","PRN","TOPICAL","WEEK 20","21-MAY-2014","03-JAN-2014","","Y"],[61,"CDISCPILOT01","701","1015","5","NEOSPORIN /USA/","UNCODED","","UNCODED",1,"VIAL","PRN","TOPICAL","WEEK 24","18-JUN-2014","03-JAN-2014","","Y"],[62,"CDISCPILOT01","701","1015","5","NEOSPORIN /USA/","UNCODED","","UNCODED",1,"VIAL","PRN","TOPICAL","WEEK 26","02-JUL-2014","03-JAN-2014","","Y"],[63,"CDISCPILOT01","701","1015","6","HYDROCORTISONE","HYDROCORTISONE","","SYSTEMIC HORMONAL PREPARATIONS, EXCL.",1,"VIAL","PRN","TOPICAL","WEEK 16","07-MAY-2014","27-MAR-2014","","Y"],[64,"CDISCPILOT01","701","1015","6","HYDROCORTISONE","HYDROCORTISONE","","SYSTEMIC HORMONAL PREPARATIONS, EXCL.",1,"VIAL","PRN","TOPICAL","WEEK 20","21-MAY-2014","27-MAR-2014","","Y"],[65,"CDISCPILOT01","701","1015","6","HYDROCORTISONE","HYDROCORTISONE","","SYSTEMIC HORMONAL PREPARATIONS, EXCL.",1,"VIAL","PRN","TOPICAL","WEEK 24","18-JUN-2014","27-MAR-2014","","Y"],[66,"CDISCPILOT01","701","1015","6","HYDROCORTISONE","HYDROCORTISONE","","SYSTEMIC HORMONAL PREPARATIONS, EXCL.",1,"VIAL","PRN","TOPICAL","WEEK 26","02-JUL-2014","27-MAR-2014","","Y"],[67,"CDISCPILOT01","701","1023","1","ASPIRIN","ACETYLSALICYLIC ACID","","NERVOUS SYSTEM",325,"mg","PRN","ORAL","SCREENING 1","22-JUL-2012","2006","","Y"],[68,"CDISCPILOT01","701","1023","1","ASPIRIN","ACETYLSALICYLIC ACID","","NERVOUS SYSTEM",325,"mg","PRN","ORAL","SCREENING 2","03-AUG-2012","2006","","Y"],[69,"CDISCPILOT01","701","1023","1","ASPIRIN","ACETYLSALICYLIC ACID","","NERVOUS SYSTEM",325,"mg","PRN","ORAL","BASELINE","05-AUG-2012","2006","","Y"],[70,"CDISCPILOT01","701","1023","1","ASPIRIN","ACETYLSALICYLIC ACID","","NERVOUS SYSTEM",325,"mg","PRN","ORAL","WEEK 2","27-AUG-2012","2006","","Y"],[71,"CDISCPILOT01","701","1023","1","ASPIRIN","ACETYLSALICYLIC ACID","","NERVOUS SYSTEM",325,"mg","PRN","ORAL","WEEK 4","02-SEP-2012","2006","","Y"],[72,"CDISCPILOT01","701","1023","1","ASPIRIN","ACETYLSALICYLIC ACID","","NERVOUS SYSTEM",325,"mg","PRN","ORAL","AE FOLLOW-UP","18-FEB-2013","2006","","Y"],[73,"CDISCPILOT01","701","1023","1","ASPIRIN","ACETYLSALICYLIC ACID","","NERVOUS SYSTEM",325,"mg","PRN","ORAL","RETRIEVAL","18-FEB-2013","2006","","Y"],[74,"CDISCPILOT01","701","1023","2","MYLANTA","UNCODED","","UNCODED",1,"Tbsp","PRN","ORAL","SCREENING 1","22-JUL-2012","2002","","Y"],[75,"CDISCPILOT01","701","1023","2","MYLANTA","UNCODED","","UNCODED",1,"Tbsp","PRN","ORAL","SCREENING 2","03-AUG-2012","2002","","Y"],[76,"CDISCPILOT01","701","1023","2","MYLANTA","UNCODED","","UNCODED",1,"Tbsp","PRN","ORAL","BASELINE","05-AUG-2012","2002","","Y"],[77,"CDISCPILOT01","701","1023","2","MYLANTA","UNCODED","","UNCODED",1,"Tbsp","PRN","ORAL","WEEK 2","27-AUG-2012","2002","","Y"],[78,"CDISCPILOT01","701","1023","2","MYLANTA","UNCODED","","UNCODED",1,"Tbsp","PRN","ORAL","WEEK 4","02-SEP-2012","2002","","Y"],[79,"CDISCPILOT01","701","1023","2","MYLANTA","UNCODED","","UNCODED",1,"Tbsp","PRN","ORAL","AE FOLLOW-UP","18-FEB-2013","2002","","Y"],[80,"CDISCPILOT01","701","1023","2","MYLANTA","UNCODED","","UNCODED",1,"Tbsp","PRN","ORAL","RETRIEVAL","18-FEB-2013","2002","","Y"],[81,"CDISCPILOT01","701","1023","3","TUMS","UNCODED","","UNCODED",1,"TABLET","PRN","ORAL","SCREENING 1","22-JUL-2012","2002","","Y"],[82,"CDISCPILOT01","701","1023","3","TUMS","UNCODED","","UNCODED",1,"TABLET","PRN","ORAL","SCREENING 2","03-AUG-2012","2002","","Y"],[83,"CDISCPILOT01","701","1023","3","TUMS","UNCODED","","UNCODED",1,"TABLET","PRN","ORAL","BASELINE","05-AUG-2012","2002","","Y"],[84,"CDISCPILOT01","701","1023","3","TUMS","UNCODED","","UNCODED",1,"TABLET","PRN","ORAL","WEEK 2","27-AUG-2012","2002","","Y"],[85,"CDISCPILOT01","701","1023","3","TUMS","UNCODED","","UNCODED",1,"TABLET","PRN","ORAL","WEEK 4","02-SEP-2012","2002","","Y"],[86,"CDISCPILOT01","701","1023","3","TUMS","UNCODED","","UNCODED",1,"TABLET","PRN","ORAL","AE FOLLOW-UP","18-FEB-2013","2002","","Y"],[87,"CDISCPILOT01","701","1023","3","TUMS","UNCODED","","UNCODED",1,"TABLET","PRN","ORAL","RETRIEVAL","18-FEB-2013","2002","","Y"],[88,"CDISCPILOT01","701","1028","1","CENTRUM","UNCODED","PROPHYLAXIS OR NON-THERAPEUTIC USE","UNCODED",1,"TABLET","QD","ORAL","SCREENING 1","11-JUL-2013","APR-2013","","Y"],[89,"CDISCPILOT01","701","1028","1","CENTRUM","UNCODED","PROPHYLAXIS OR NON-THERAPEUTIC USE","UNCODED",1,"TABLET","QD","ORAL","SCREENING 2","17-JUL-2013","APR-2013","","Y"],[90,"CDISCPILOT01","701","1028","1","CENTRUM","UNCODED","PROPHYLAXIS OR NON-THERAPEUTIC USE","UNCODED",1,"TABLET","QD","ORAL","BASELINE","19-JUL-2013","APR-2013","","Y"],[91,"CDISCPILOT01","701","1028","1","CENTRUM","UNCODED","PROPHYLAXIS OR NON-THERAPEUTIC USE","UNCODED",1,"TABLET","QD","ORAL","WEEK 2","01-AUG-2013","APR-2013","","Y"],[92,"CDISCPILOT01","701","1028","1","CENTRUM","UNCODED","PROPHYLAXIS OR NON-THERAPEUTIC USE","UNCODED",1,"TABLET","QD","ORAL","WEEK 4","14-AUG-2013","APR-2013","","Y"],[93,"CDISCPILOT01","701","1028","1","CENTRUM","UNCODED","PROPHYLAXIS OR NON-THERAPEUTIC USE","UNCODED",1,"TABLET","QD","ORAL","AMBUL ECG REMOVAL","16-AUG-2013","APR-2013","","Y"],[94,"CDISCPILOT01","701","1028","1","CENTRUM","UNCODED","PROPHYLAXIS OR NON-THERAPEUTIC USE","UNCODED",1,"TABLET","QD","ORAL","WEEK 6","29-AUG-2013","APR-2013","","Y"],[95,"CDISCPILOT01","701","1028","1","CENTRUM","UNCODED","PROPHYLAXIS OR NON-THERAPEUTIC USE","UNCODED",1,"TABLET","QD","ORAL","WEEK 8","10-SEP-2013","APR-2013","","Y"],[96,"CDISCPILOT01","701","1028","1","CENTRUM","UNCODED","PROPHYLAXIS OR NON-THERAPEUTIC USE","UNCODED",1,"TABLET","QD","ORAL","WEEK 12","09-OCT-2013","APR-2013","","Y"],[97,"CDISCPILOT01","701","1028","1","CENTRUM","UNCODED","PROPHYLAXIS OR NON-THERAPEUTIC USE","UNCODED",1,"TABLET","QD","ORAL","WEEK 16","06-NOV-2013","APR-2013","","Y"],[98,"CDISCPILOT01","701","1028","1","CENTRUM","UNCODED","PROPHYLAXIS OR NON-THERAPEUTIC USE","UNCODED",1,"TABLET","QD","ORAL","WEEK 20","04-DEC-2013","APR-2013","","Y"],[99,"CDISCPILOT01","701","1028","1","CENTRUM","UNCODED","PROPHYLAXIS OR NON-THERAPEUTIC USE","UNCODED",1,"TABLET","QD","ORAL","WEEK 24","06-JAN-2014","APR-2013","","Y"],[100,"CDISCPILOT01","701","1028","1","CENTRUM","UNCODED","PROPHYLAXIS OR NON-THERAPEUTIC USE","UNCODED",1,"TABLET","QD","ORAL","WEEK 26","14-JAN-2014","APR-2013","","Y"],[101,"CDISCPILOT01","701","1028","2","HYDROCORTISONE","HYDROCORTISONE","","SYSTEMIC HORMONAL PREPARATIONS, EXCL.",1,"VIAL","PRN","TOPICAL","WEEK 4","14-AUG-2013","08-AUG-2013","","Y"],[102,"CDISCPILOT01","701","1028","2","HYDROCORTISONE","HYDROCORTISONE","","SYSTEMIC HORMONAL PREPARATIONS, EXCL.",1,"VIAL","PRN","TOPICAL","AMBUL ECG REMOVAL","16-AUG-2013","08-AUG-2013","","Y"],[103,"CDISCPILOT01","701","1028","2","HYDROCORTISONE","HYDROCORTISONE","","SYSTEMIC HORMONAL PREPARATIONS, EXCL.",1,"VIAL","PRN","TOPICAL","WEEK 6","29-AUG-2013","08-AUG-2013","","Y"],[104,"CDISCPILOT01","701","1028","2","HYDROCORTISONE","HYDROCORTISONE","","SYSTEMIC HORMONAL PREPARATIONS, EXCL.",1,"VIAL","PRN","TOPICAL","WEEK 8","10-SEP-2013","08-AUG-2013","","Y"],[105,"CDISCPILOT01","701","1028","2","HYDROCORTISONE","HYDROCORTISONE","","SYSTEMIC HORMONAL PREPARATIONS, EXCL.",1,"VIAL","PRN","TOPICAL","WEEK 12","09-OCT-2013","08-AUG-2013","","Y"],[106,"CDISCPILOT01","701","1028","2","HYDROCORTISONE","HYDROCORTISONE","","SYSTEMIC HORMONAL PREPARATIONS, EXCL.",1,"VIAL","PRN","TOPICAL","WEEK 16","06-NOV-2013","08-AUG-2013","","Y"],[107,"CDISCPILOT01","701","1028","2","HYDROCORTISONE","HYDROCORTISONE","","SYSTEMIC HORMONAL PREPARATIONS, EXCL.",1,"VIAL","PRN","TOPICAL","WEEK 20","04-DEC-2013","08-AUG-2013","","Y"],[108,"CDISCPILOT01","701","1028","2","HYDROCORTISONE","HYDROCORTISONE","","SYSTEMIC HORMONAL PREPARATIONS, EXCL.",1,"VIAL","PRN","TOPICAL","WEEK 24","06-JAN-2014","08-AUG-2013","","Y"],[109,"CDISCPILOT01","701","1028","2","HYDROCORTISONE","HYDROCORTISONE","","SYSTEMIC HORMONAL PREPARATIONS, EXCL.",1,"VIAL","PRN","TOPICAL","WEEK 26","14-JAN-2014","08-AUG-2013","","Y"],[110,"CDISCPILOT01","701","1033","1","CALCIUM","CALCIUM","PROPHYLAXIS OR NON-THERAPEUTIC USE","ALIMENTARY TRACT AND METABOLISM",1,"TABLET","PRN","ORAL","SCREENING 1","10-MAR-2014","2011","","Y"],[111,"CDISCPILOT01","701","1033","1","CALCIUM","CALCIUM","PROPHYLAXIS OR NON-THERAPEUTIC USE","ALIMENTARY TRACT AND METABOLISM",1,"TABLET","PRN","ORAL","SCREENING 2","16-MAR-2014","2011","","Y"],[112,"CDISCPILOT01","701","1033","1","CALCIUM","CALCIUM","PROPHYLAXIS OR NON-THERAPEUTIC USE","ALIMENTARY TRACT AND METABOLISM",1,"TABLET","PRN","ORAL","BASELINE","18-MAR-2014","2011","","Y"],[113,"CDISCPILOT01","701","1033","1","CALCIUM","CALCIUM","PROPHYLAXIS OR NON-THERAPEUTIC USE","ALIMENTARY TRACT AND METABOLISM",1,"TABLET","PRN","ORAL","WEEK 2","01-APR-2014","2011","","Y"],[114,"CDISCPILOT01","701","1033","1","CALCIUM","CALCIUM","PROPHYLAXIS OR NON-THERAPEUTIC USE","ALIMENTARY TRACT AND METABOLISM",1,"TABLET","PRN","ORAL","WEEK 4","14-APR-2014","2011","","Y"],[115,"CDISCPILOT01","701","1033","1","CALCIUM","CALCIUM","PROPHYLAXIS OR NON-THERAPEUTIC USE","ALIMENTARY TRACT AND METABOLISM",1,"TABLET","PRN","ORAL","RETRIEVAL","15-SEP-2014","2011","","Y"],[116,"CDISCPILOT01","701","1033","2","COD-LIVER OIL","UNCODED","PROPHYLAXIS OR NON-THERAPEUTIC USE","UNCODED",1,"CAPSULE","PRN","ORAL","SCREENING 1","10-MAR-2014","2011","","Y"],[117,"CDISCPILOT01","701","1033","2","COD-LIVER OIL","UNCODED","PROPHYLAXIS OR NON-THERAPEUTIC USE","UNCODED",1,"CAPSULE","PRN","ORAL","SCREENING 2","16-MAR-2014","2011","","Y"],[118,"CDISCPILOT01","701","1033","2","COD-LIVER OIL","UNCODED","PROPHYLAXIS OR NON-THERAPEUTIC USE","UNCODED",1,"CAPSULE","PRN","ORAL","BASELINE","18-MAR-2014","2011","","Y"],[119,"CDISCPILOT01","701","1033","2","COD-LIVER OIL","UNCODED","PROPHYLAXIS OR NON-THERAPEUTIC USE","UNCODED",1,"CAPSULE","PRN","ORAL","WEEK 2","01-APR-2014","2011","","Y"],[120,"CDISCPILOT01","701","1033","2","COD-LIVER OIL","UNCODED","PROPHYLAXIS OR NON-THERAPEUTIC USE","UNCODED",1,"CAPSULE","PRN","ORAL","WEEK 4","14-APR-2014","2011","","Y"],[121,"CDISCPILOT01","701","1033","2","COD-LIVER OIL","UNCODED","PROPHYLAXIS OR NON-THERAPEUTIC USE","UNCODED",1,"CAPSULE","PRN","ORAL","RETRIEVAL","15-SEP-2014","2011","","Y"],[122,"CDISCPILOT01","701","1033","3","NITROGLYCERIN","UNCODED","","UNCODED",0.4,"mg","PRN","SUBLINGUAL","SCREENING 1","10-MAR-2014","FEB-2014","","Y"],[123,"CDISCPILOT01","701","1033","3","NITROGLYCERIN","UNCODED","","UNCODED",0.4,"mg","PRN","SUBLINGUAL","SCREENING 2","16-MAR-2014","FEB-2014","","Y"],[124,"CDISCPILOT01","701","1033","3","NITROGLYCERIN","UNCODED","","UNCODED",0.4,"mg","PRN","SUBLINGUAL","BASELINE","18-MAR-2014","FEB-2014","","Y"],[125,"CDISCPILOT01","701","1033","3","NITROGLYCERIN","UNCODED","","UNCODED",0.4,"mg","PRN","SUBLINGUAL","WEEK 2","01-APR-2014","FEB-2014","","Y"],[126,"CDISCPILOT01","701","1033","3","NITROGLYCERIN","UNCODED","","UNCODED",0.4,"mg","PRN","SUBLINGUAL","WEEK 4","14-APR-2014","FEB-2014","","Y"],[127,"CDISCPILOT01","701","1033","3","NITROGLYCERIN","UNCODED","","UNCODED",0.4,"mg","PRN","SUBLINGUAL","RETRIEVAL","15-SEP-2014","FEB-2014","","Y"],[128,"CDISCPILOT01","701","1033","4","ZINC","UNCODED","PROPHYLAXIS OR NON-THERAPEUTIC USE","UNCODED",1,"TABLET","PRN","ORAL","SCREENING 1","10-MAR-2014","2011","","Y"],[129,"CDISCPILOT01","701","1033","4","ZINC","UNCODED","PROPHYLAXIS OR NON-THERAPEUTIC USE","UNCODED",1,"TABLET","PRN","ORAL","SCREENING 2","16-MAR-2014","2011","","Y"],[130,"CDISCPILOT01","701","1033","4","ZINC","UNCODED","PROPHYLAXIS OR NON-THERAPEUTIC USE","UNCODED",1,"TABLET","PRN","ORAL","BASELINE","18-MAR-2014","2011","","Y"],[131,"CDISCPILOT01","701","1033","4","ZINC","UNCODED","PROPHYLAXIS OR NON-THERAPEUTIC USE","UNCODED",1,"TABLET","PRN","ORAL","WEEK 2","01-APR-2014","2011","","Y"],[132,"CDISCPILOT01","701","1033","4","ZINC","UNCODED","PROPHYLAXIS OR NON-THERAPEUTIC USE","UNCODED",1,"TABLET","PRN","ORAL","WEEK 4","14-APR-2014","2011","","Y"],[133,"CDISCPILOT01","701","1033","4","ZINC","UNCODED","PROPHYLAXIS OR NON-THERAPEUTIC USE","UNCODED",1,"TABLET","PRN","ORAL","RETRIEVAL","15-SEP-2014","2011","","Y"],[134,"CDISCPILOT01","701","1034","1","CALCIUM","CALCIUM","PROPHYLAXIS OR NON-THERAPEUTIC USE","ALIMENTARY TRACT AND METABOLISM",1,"TABLET","QD","ORAL","SCREENING 1","24-JUN-2014","2012","","Y"],[135,"CDISCPILOT01","701","1034","1","CALCIUM","CALCIUM","PROPHYLAXIS OR NON-THERAPEUTIC USE","ALIMENTARY TRACT AND METABOLISM",1,"TABLET","QD","ORAL","SCREENING 2","29-JUN-2014","2012","","Y"],[136,"CDISCPILOT01","701","1034","1","CALCIUM","CALCIUM","PROPHYLAXIS OR NON-THERAPEUTIC USE","ALIMENTARY TRACT AND METABOLISM",1,"TABLET","QD","ORAL","BASELINE","01-JUL-2014","2012","","Y"],[137,"CDISCPILOT01","701","1034","1","CALCIUM","CALCIUM","PROPHYLAXIS OR NON-THERAPEUTIC USE","ALIMENTARY TRACT AND METABOLISM",1,"TABLET","QD","ORAL","WEEK 2","15-JUL-2014","2012","","Y"],[138,"CDISCPILOT01","701","1034","1","CALCIUM","CALCIUM","PROPHYLAXIS OR NON-THERAPEUTIC USE","ALIMENTARY TRACT AND METABOLISM",1,"TABLET","QD","ORAL","WEEK 4","29-JUL-2014","2012","","Y"],[139,"CDISCPILOT01","701","1034","1","CALCIUM","CALCIUM","PROPHYLAXIS OR NON-THERAPEUTIC USE","ALIMENTARY TRACT AND METABOLISM",1,"TABLET","QD","ORAL","AMBUL ECG REMOVAL","31-JUL-2014","2012","","Y"],[140,"CDISCPILOT01","701","1034","1","CALCIUM","CALCIUM","PROPHYLAXIS OR NON-THERAPEUTIC USE","ALIMENTARY TRACT AND METABOLISM",1,"TABLET","QD","ORAL","WEEK 6","11-AUG-2014","2012","","Y"],[141,"CDISCPILOT01","701","1034","1","CALCIUM","CALCIUM","PROPHYLAXIS OR NON-THERAPEUTIC USE","ALIMENTARY TRACT AND METABOLISM",1,"TABLET","QD","ORAL","WEEK 8","26-AUG-2014","2012","","Y"],[142,"CDISCPILOT01","701","1034","1","CALCIUM","CALCIUM","PROPHYLAXIS OR NON-THERAPEUTIC USE","ALIMENTARY TRACT AND METABOLISM",1,"TABLET","QD","ORAL","WEEK 12","25-SEP-2014","2012","","Y"],[143,"CDISCPILOT01","701","1034","1","CALCIUM","CALCIUM","PROPHYLAXIS OR NON-THERAPEUTIC USE","ALIMENTARY TRACT AND METABOLISM",1,"TABLET","QD","ORAL","WEEK 16","21-OCT-2014","2012","","Y"],[144,"CDISCPILOT01","701","1034","1","CALCIUM","CALCIUM","PROPHYLAXIS OR NON-THERAPEUTIC USE","ALIMENTARY TRACT AND METABOLISM",1,"TABLET","QD","ORAL","WEEK 20","18-NOV-2014","2012","","Y"],[145,"CDISCPILOT01","701","1034","1","CALCIUM","CALCIUM","PROPHYLAXIS OR NON-THERAPEUTIC USE","ALIMENTARY TRACT AND METABOLISM",1,"TABLET","QD","ORAL","WEEK 24","17-DEC-2014","2012","","Y"],[146,"CDISCPILOT01","701","1034","1","CALCIUM","CALCIUM","PROPHYLAXIS OR NON-THERAPEUTIC USE","ALIMENTARY TRACT AND METABOLISM",1,"TABLET","QD","ORAL","WEEK 26","30-DEC-2014","2012","","Y"],[147,"CDISCPILOT01","701","1034","2","ESTROGEN NOS","UNCODED","PROPHYLAXIS OR NON-THERAPEUTIC USE","UNCODED",3,"mL","OTHER","INTRAMUSCULAR","SCREENING 1","24-JUN-2014","1960","","Y"],[148,"CDISCPILOT01","701","1034","2","ESTROGEN NOS","UNCODED","PROPHYLAXIS OR NON-THERAPEUTIC USE","UNCODED",3,"mL","OTHER","INTRAMUSCULAR","SCREENING 2","29-JUN-2014","1960","","Y"],[149,"CDISCPILOT01","701","1034","2","ESTROGEN NOS","UNCODED","PROPHYLAXIS OR NON-THERAPEUTIC USE","UNCODED",3,"mL","OTHER","INTRAMUSCULAR","BASELINE","01-JUL-2014","1960","","Y"],[150,"CDISCPILOT01","701","1034","2","ESTROGEN NOS","UNCODED","PROPHYLAXIS OR NON-THERAPEUTIC USE","UNCODED",3,"mL","OTHER","INTRAMUSCULAR","WEEK 2","15-JUL-2014","1960","","Y"],[151,"CDISCPILOT01","701","1034","2","ESTROGEN NOS","UNCODED","PROPHYLAXIS OR NON-THERAPEUTIC USE","UNCODED",3,"mL","OTHER","INTRAMUSCULAR","WEEK 4","29-JUL-2014","1960","","Y"],[152,"CDISCPILOT01","701","1034","2","ESTROGEN NOS","UNCODED","PROPHYLAXIS OR NON-THERAPEUTIC USE","UNCODED",3,"mL","OTHER","INTRAMUSCULAR","AMBUL ECG REMOVAL","31-JUL-2014","1960","","Y"],[153,"CDISCPILOT01","701","1034","2","ESTROGEN NOS","UNCODED","PROPHYLAXIS OR NON-THERAPEUTIC USE","UNCODED",3,"mL","OTHER","INTRAMUSCULAR","WEEK 6","11-AUG-2014","1960","","Y"],[154,"CDISCPILOT01","701","1034","2","ESTROGEN NOS","UNCODED","PROPHYLAXIS OR NON-THERAPEUTIC USE","UNCODED",3,"mL","OTHER","INTRAMUSCULAR","WEEK 8","26-AUG-2014","1960","","Y"],[155,"CDISCPILOT01","701","1034","2","ESTROGEN NOS","UNCODED","PROPHYLAXIS OR NON-THERAPEUTIC USE","UNCODED",3,"mL","OTHER","INTRAMUSCULAR","WEEK 12","25-SEP-2014","1960","","Y"],[156,"CDISCPILOT01","701","1034","2","ESTROGEN NOS","UNCODED","PROPHYLAXIS OR NON-THERAPEUTIC USE","UNCODED",3,"mL","OTHER","INTRAMUSCULAR","WEEK 16","21-OCT-2014","1960","","Y"],[157,"CDISCPILOT01","701","1034","2","ESTROGEN NOS","UNCODED","PROPHYLAXIS OR NON-THERAPEUTIC USE","UNCODED",3,"mL","OTHER","INTRAMUSCULAR","WEEK 20","18-NOV-2014","1960","","Y"],[158,"CDISCPILOT01","701","1034","2","ESTROGEN NOS","UNCODED","PROPHYLAXIS OR NON-THERAPEUTIC USE","UNCODED",3,"mL","OTHER","INTRAMUSCULAR","WEEK 24","17-DEC-2014","1960","","Y"],[159,"CDISCPILOT01","701","1034","2","ESTROGEN NOS","UNCODED","PROPHYLAXIS OR NON-THERAPEUTIC USE","UNCODED",3,"mL","OTHER","INTRAMUSCULAR","WEEK 26","30-DEC-2014","1960","","Y"],[160,"CDISCPILOT01","701","1034","3","EX-LAX","UNCODED","","UNCODED",1,"TABLET","QD","ORAL","SCREENING 1","24-JUN-2014","2001","","Y"],[161,"CDISCPILOT01","701","1034","3","EX-LAX","UNCODED","","UNCODED",1,"TABLET","QD","ORAL","SCREENING 2","29-JUN-2014","2001","","Y"],[162,"CDISCPILOT01","701","1034","3","EX-LAX","UNCODED","","UNCODED",1,"TABLET","QD","ORAL","BASELINE","01-JUL-2014","2001","","Y"],[163,"CDISCPILOT01","701","1034","3","EX-LAX","UNCODED","","UNCODED",1,"TABLET","QD","ORAL","WEEK 2","15-JUL-2014","2001","","Y"],[164,"CDISCPILOT01","701","1034","3","EX-LAX","UNCODED","","UNCODED",1,"TABLET","QD","ORAL","WEEK 4","29-JUL-2014","2001","","Y"],[165,"CDISCPILOT01","701","1034","3","EX-LAX","UNCODED","","UNCODED",1,"TABLET","QD","ORAL","AMBUL ECG REMOVAL","31-JUL-2014","2001","","Y"],[166,"CDISCPILOT01","701","1034","3","EX-LAX","UNCODED","","UNCODED",1,"TABLET","QD","ORAL","WEEK 6","11-AUG-2014","2001","","Y"],[167,"CDISCPILOT01","701","1034","3","EX-LAX","UNCODED","","UNCODED",1,"TABLET","QD","ORAL","WEEK 8","26-AUG-2014","2001","","Y"],[168,"CDISCPILOT01","701","1034","3","EX-LAX","UNCODED","","UNCODED",1,"TABLET","QD","ORAL","WEEK 12","25-SEP-2014","2001","","Y"],[169,"CDISCPILOT01","701","1034","3","EX-LAX","UNCODED","","UNCODED",1,"TABLET","QD","ORAL","WEEK 16","21-OCT-2014","2001","","Y"],[170,"CDISCPILOT01","701","1034","3","EX-LAX","UNCODED","","UNCODED",1,"TABLET","QD","ORAL","WEEK 20","18-NOV-2014","2001","","Y"],[171,"CDISCPILOT01","701","1034","3","EX-LAX","UNCODED","","UNCODED",1,"TABLET","QD","ORAL","WEEK 24","17-DEC-2014","2001","","Y"],[172,"CDISCPILOT01","701","1034","3","EX-LAX","UNCODED","","UNCODED",1,"TABLET","QD","ORAL","WEEK 26","30-DEC-2014","2001","","Y"],[173,"CDISCPILOT01","701","1034","4","IRON","UNCODED","PROPHYLAXIS OR NON-THERAPEUTIC USE","UNCODED",1,"TABLET","QD","ORAL","SCREENING 1","24-JUN-2014","2012","","Y"],[174,"CDISCPILOT01","701","1034","4","IRON","UNCODED","PROPHYLAXIS OR NON-THERAPEUTIC USE","UNCODED",1,"TABLET","QD","ORAL","SCREENING 2","29-JUN-2014","2012","","Y"],[175,"CDISCPILOT01","701","1034","4","IRON","UNCODED","PROPHYLAXIS OR NON-THERAPEUTIC USE","UNCODED",1,"TABLET","QD","ORAL","BASELINE","01-JUL-2014","2012","","Y"],[176,"CDISCPILOT01","701","1034","4","IRON","UNCODED","PROPHYLAXIS OR NON-THERAPEUTIC USE","UNCODED",1,"TABLET","QD","ORAL","WEEK 2","15-JUL-2014","2012","","Y"],[177,"CDISCPILOT01","701","1034","4","IRON","UNCODED","PROPHYLAXIS OR NON-THERAPEUTIC USE","UNCODED",1,"TABLET","QD","ORAL","WEEK 4","29-JUL-2014","2012","","Y"],[178,"CDISCPILOT01","701","1034","4","IRON","UNCODED","PROPHYLAXIS OR NON-THERAPEUTIC USE","UNCODED",1,"TABLET","QD","ORAL","AMBUL ECG REMOVAL","31-JUL-2014","2012","","Y"],[179,"CDISCPILOT01","701","1034","4","IRON","UNCODED","PROPHYLAXIS OR NON-THERAPEUTIC USE","UNCODED",1,"TABLET","QD","ORAL","WEEK 6","11-AUG-2014","2012","","Y"],[180,"CDISCPILOT01","701","1034","4","IRON","UNCODED","PROPHYLAXIS OR NON-THERAPEUTIC USE","UNCODED",1,"TABLET","QD","ORAL","WEEK 8","26-AUG-2014","2012","","Y"],[181,"CDISCPILOT01","701","1034","4","IRON","UNCODED","PROPHYLAXIS OR NON-THERAPEUTIC USE","UNCODED",1,"TABLET","QD","ORAL","WEEK 12","25-SEP-2014","2012","","Y"],[182,"CDISCPILOT01","701","1034","4","IRON","UNCODED","PROPHYLAXIS OR NON-THERAPEUTIC USE","UNCODED",1,"TABLET","QD","ORAL","WEEK 16","21-OCT-2014","2012","","Y"],[183,"CDISCPILOT01","701","1034","4","IRON","UNCODED","PROPHYLAXIS OR NON-THERAPEUTIC USE","UNCODED",1,"TABLET","QD","ORAL","WEEK 20","18-NOV-2014","2012","","Y"],[184,"CDISCPILOT01","701","1034","4","IRON","UNCODED","PROPHYLAXIS OR NON-THERAPEUTIC USE","UNCODED",1,"TABLET","QD","ORAL","WEEK 24","17-DEC-2014","2012","","Y"],[185,"CDISCPILOT01","701","1034","4","IRON","UNCODED","PROPHYLAXIS OR NON-THERAPEUTIC USE","UNCODED",1,"TABLET","QD","ORAL","WEEK 26","30-DEC-2014","2012","","Y"],[186,"CDISCPILOT01","701","1034","5","LEVOTHROID","UNCODED","","UNCODED",0.15,"mg","QD","ORAL","SCREENING 1","24-JUN-2014","1977","","Y"],[187,"CDISCPILOT01","701","1034","5","LEVOTHROID","UNCODED","","UNCODED",0.15,"mg","QD","ORAL","SCREENING 2","29-JUN-2014","1977","","Y"],[188,"CDISCPILOT01","701","1034","5","LEVOTHROID","UNCODED","","UNCODED",0.15,"mg","QD","ORAL","BASELINE","01-JUL-2014","1977","","Y"],[189,"CDISCPILOT01","701","1034","5","LEVOTHROID","UNCODED","","UNCODED",0.15,"mg","QD","ORAL","WEEK 2","15-JUL-2014","1977","","Y"],[190,"CDISCPILOT01","701","1034","5","LEVOTHROID","UNCODED","","UNCODED",0.15,"mg","QD","ORAL","WEEK 4","29-JUL-2014","1977","","Y"],[191,"CDISCPILOT01","701","1034","5","LEVOTHROID","UNCODED","","UNCODED",0.15,"mg","QD","ORAL","AMBUL ECG REMOVAL","31-JUL-2014","1977","","Y"],[192,"CDISCPILOT01","701","1034","5","LEVOTHROID","UNCODED","","UNCODED",0.15,"mg","QD","ORAL","WEEK 6","11-AUG-2014","1977","","Y"],[193,"CDISCPILOT01","701","1034","5","LEVOTHROID","UNCODED","","UNCODED",0.15,"mg","QD","ORAL","WEEK 8","26-AUG-2014","1977","","Y"],[194,"CDISCPILOT01","701","1034","5","LEVOTHROID","UNCODED","","UNCODED",0.15,"mg","QD","ORAL","WEEK 12","25-SEP-2014","1977","","Y"],[195,"CDISCPILOT01","701","1034","5","LEVOTHROID","UNCODED","","UNCODED",0.15,"mg","QD","ORAL","WEEK 16","21-OCT-2014","1977","","Y"],[196,"CDISCPILOT01","701","1034","5","LEVOTHROID","UNCODED","","UNCODED",0.15,"mg","QD","ORAL","WEEK 20","18-NOV-2014","1977","","Y"],[197,"CDISCPILOT01","701","1034","5","LEVOTHROID","UNCODED","","UNCODED",0.15,"mg","QD","ORAL","WEEK 24","17-DEC-2014","1977","","Y"],[198,"CDISCPILOT01","701","1034","5","LEVOTHROID","UNCODED","","UNCODED",0.15,"mg","QD","ORAL","WEEK 26","30-DEC-2014","1977","","Y"],[199,"CDISCPILOT01","701","1034","6","VITAMIN C","UNCODED","PROPHYLAXIS OR NON-THERAPEUTIC USE","UNCODED",1,"TABLET","QD","ORAL","SCREENING 1","24-JUN-2014","1986","","Y"],[200,"CDISCPILOT01","701","1034","6","VITAMIN C","UNCODED","PROPHYLAXIS OR NON-THERAPEUTIC USE","UNCODED",1,"TABLET","QD","ORAL","SCREENING 2","29-JUN-2014","1986","","Y"],[201,"CDISCPILOT01","701","1034","6","VITAMIN C","UNCODED","PROPHYLAXIS OR NON-THERAPEUTIC USE","UNCODED",1,"TABLET","QD","ORAL","BASELINE","01-JUL-2014","1986","","Y"],[202,"CDISCPILOT01","701","1034","6","VITAMIN C","UNCODED","PROPHYLAXIS OR NON-THERAPEUTIC USE","UNCODED",1,"TABLET","QD","ORAL","WEEK 2","15-JUL-2014","1986","","Y"],[203,"CDISCPILOT01","701","1034","6","VITAMIN C","UNCODED","PROPHYLAXIS OR NON-THERAPEUTIC USE","UNCODED",1,"TABLET","QD","ORAL","WEEK 4","29-JUL-2014","1986","","Y"],[204,"CDISCPILOT01","701","1034","6","VITAMIN C","UNCODED","PROPHYLAXIS OR NON-THERAPEUTIC USE","UNCODED",1,"TABLET","QD","ORAL","AMBUL ECG REMOVAL","31-JUL-2014","1986","","Y"],[205,"CDISCPILOT01","701","1034","6","VITAMIN C","UNCODED","PROPHYLAXIS OR NON-THERAPEUTIC USE","UNCODED",1,"TABLET","QD","ORAL","WEEK 6","11-AUG-2014","1986","","Y"],[206,"CDISCPILOT01","701","1034","6","VITAMIN C","UNCODED","PROPHYLAXIS OR NON-THERAPEUTIC USE","UNCODED",1,"TABLET","QD","ORAL","WEEK 8","26-AUG-2014","1986","","Y"],[207,"CDISCPILOT01","701","1034","6","VITAMIN C","UNCODED","PROPHYLAXIS OR NON-THERAPEUTIC USE","UNCODED",1,"TABLET","QD","ORAL","WEEK 12","25-SEP-2014","1986","","Y"],[208,"CDISCPILOT01","701","1034","6","VITAMIN C","UNCODED","PROPHYLAXIS OR NON-THERAPEUTIC USE","UNCODED",1,"TABLET","QD","ORAL","WEEK 16","21-OCT-2014","1986","","Y"],[209,"CDISCPILOT01","701","1034","6","VITAMIN C","UNCODED","PROPHYLAXIS OR NON-THERAPEUTIC USE","UNCODED",1,"TABLET","QD","ORAL","WEEK 20","18-NOV-2014","1986","","Y"],[210,"CDISCPILOT01","701","1034","6","VITAMIN C","UNCODED","PROPHYLAXIS OR NON-THERAPEUTIC USE","UNCODED",1,"TABLET","QD","ORAL","WEEK 24","17-DEC-2014","1986","","Y"],[211,"CDISCPILOT01","701","1034","6","VITAMIN C","UNCODED","PROPHYLAXIS OR NON-THERAPEUTIC USE","UNCODED",1,"TABLET","QD","ORAL","WEEK 26","30-DEC-2014","1986","","Y"],[212,"CDISCPILOT01","701","1034","7","VITAMIN E","UNCODED","PROPHYLAXIS OR NON-THERAPEUTIC USE","UNCODED",1,"TABLET","QD","ORAL","SCREENING 1","24-JUN-2014","1986","","Y"],[213,"CDISCPILOT01","701","1034","7","VITAMIN E","UNCODED","PROPHYLAXIS OR NON-THERAPEUTIC USE","UNCODED",1,"TABLET","QD","ORAL","SCREENING 2","29-JUN-2014","1986","","Y"],[214,"CDISCPILOT01","701","1034","7","VITAMIN E","UNCODED","PROPHYLAXIS OR NON-THERAPEUTIC USE","UNCODED",1,"TABLET","QD","ORAL","BASELINE","01-JUL-2014","1986","","Y"],[215,"CDISCPILOT01","701","1034","7","VITAMIN E","UNCODED","PROPHYLAXIS OR NON-THERAPEUTIC USE","UNCODED",1,"TABLET","QD","ORAL","WEEK 2","15-JUL-2014","1986","","Y"],[216,"CDISCPILOT01","701","1034","7","VITAMIN E","UNCODED","PROPHYLAXIS OR NON-THERAPEUTIC USE","UNCODED",1,"TABLET","QD","ORAL","WEEK 4","29-JUL-2014","1986","","Y"],[217,"CDISCPILOT01","701","1034","7","VITAMIN E","UNCODED","PROPHYLAXIS OR NON-THERAPEUTIC USE","UNCODED",1,"TABLET","QD","ORAL","AMBUL ECG REMOVAL","31-JUL-2014","1986","","Y"],[218,"CDISCPILOT01","701","1034","7","VITAMIN E","UNCODED","PROPHYLAXIS OR NON-THERAPEUTIC USE","UNCODED",1,"TABLET","QD","ORAL","WEEK 6","11-AUG-2014","1986","","Y"],[219,"CDISCPILOT01","701","1034","7","VITAMIN E","UNCODED","PROPHYLAXIS OR NON-THERAPEUTIC USE","UNCODED",1,"TABLET","QD","ORAL","WEEK 8","26-AUG-2014","1986","","Y"],[220,"CDISCPILOT01","701","1034","7","VITAMIN E","UNCODED","PROPHYLAXIS OR NON-THERAPEUTIC USE","UNCODED",1,"TABLET","QD","ORAL","WEEK 12","25-SEP-2014","1986","","Y"],[221,"CDISCPILOT01","701","1034","7","VITAMIN E","UNCODED","PROPHYLAXIS OR NON-THERAPEUTIC USE","UNCODED",1,"TABLET","QD","ORAL","WEEK 16","21-OCT-2014","1986","","Y"],[222,"CDISCPILOT01","701","1034","7","VITAMIN E","UNCODED","PROPHYLAXIS OR NON-THERAPEUTIC USE","UNCODED",1,"TABLET","QD","ORAL","WEEK 20","18-NOV-2014","1986","","Y"],[223,"CDISCPILOT01","701","1034","7","VITAMIN E","UNCODED","PROPHYLAXIS OR NON-THERAPEUTIC USE","UNCODED",1,"TABLET","QD","ORAL","WEEK 24","17-DEC-2014","1986","","Y"],[224,"CDISCPILOT01","701","1034","7","VITAMIN E","UNCODED","PROPHYLAXIS OR NON-THERAPEUTIC USE","UNCODED",1,"TABLET","QD","ORAL","WEEK 26","30-DEC-2014","1986","","Y"],[225,"CDISCPILOT01","701","1034","8","HYDROCORTISONE","HYDROCORTISONE","","SYSTEMIC HORMONAL PREPARATIONS, EXCL.",1,"VIAL","BID","TOPICAL","WEEK 12","25-SEP-2014","27-AUG-2014","","Y"],[226,"CDISCPILOT01","701","1034","8","HYDROCORTISONE","HYDROCORTISONE","","SYSTEMIC HORMONAL PREPARATIONS, EXCL.",1,"VIAL","BID","TOPICAL","WEEK 16","21-OCT-2014","27-AUG-2014","","Y"],[227,"CDISCPILOT01","701","1034","8","HYDROCORTISONE","HYDROCORTISONE","","SYSTEMIC HORMONAL PREPARATIONS, EXCL.",1,"VIAL","BID","TOPICAL","WEEK 20","18-NOV-2014","27-AUG-2014","","Y"],[228,"CDISCPILOT01","701","1034","8","HYDROCORTISONE","HYDROCORTISONE","","SYSTEMIC HORMONAL PREPARATIONS, EXCL.",1,"VIAL","BID","TOPICAL","WEEK 24","17-DEC-2014","27-AUG-2014","","Y"],[229,"CDISCPILOT01","701","1034","8","HYDROCORTISONE","HYDROCORTISONE","","SYSTEMIC HORMONAL PREPARATIONS, EXCL.",1,"VIAL","BID","TOPICAL","WEEK 26","30-DEC-2014","27-AUG-2014","","Y"],[230,"CDISCPILOT01","701","1047","1","ALEVE","NAPROXEN SODIUM","","RESPIRATORY SYSTEM",250,"TABLET","PRN","ORAL","SCREENING 1","22-JAN-2013","2009","","Y"],[231,"CDISCPILOT01","701","1047","1","ALEVE","NAPROXEN SODIUM","","RESPIRATORY SYSTEM",250,"TABLET","PRN","ORAL","SCREENING 2","10-FEB-2013","2009","","Y"],[232,"CDISCPILOT01","701","1047","1","ALEVE","NAPROXEN SODIUM","","RESPIRATORY SYSTEM",250,"TABLET","PRN","ORAL","BASELINE","12-FEB-2013","2009","","Y"],[233,"CDISCPILOT01","701","1047","1","ALEVE","NAPROXEN SODIUM","","RESPIRATORY SYSTEM",250,"TABLET","PRN","ORAL","WEEK 2","25-FEB-2013","2009","","Y"],[234,"CDISCPILOT01","701","1047","1","ALEVE","NAPROXEN SODIUM","","RESPIRATORY SYSTEM",250,"TABLET","PRN","ORAL","WEEK 4","10-MAR-2013","2009","","Y"],[235,"CDISCPILOT01","701","1047","1","ALEVE","NAPROXEN SODIUM","","RESPIRATORY SYSTEM",250,"TABLET","PRN","ORAL","AMBUL ECG REMOVAL","29-MAR-2013","2009","","Y"],[236,"CDISCPILOT01","701","1047","1","ALEVE","NAPROXEN SODIUM","","RESPIRATORY SYSTEM",250,"TABLET","PRN","ORAL","RETRIEVAL","28-JUL-2013","2009","","Y"],[237,"CDISCPILOT01","701","1047","2","CENTRUM","UNCODED","PROPHYLAXIS OR NON-THERAPEUTIC USE","UNCODED",1,"TABLET","QD","ORAL","SCREENING 1","22-JAN-2013","2002","","Y"],[238,"CDISCPILOT01","701","1047","2","CENTRUM","UNCODED","PROPHYLAXIS OR NON-THERAPEUTIC USE","UNCODED",1,"TABLET","QD","ORAL","SCREENING 2","10-FEB-2013","2002","","Y"],[239,"CDISCPILOT01","701","1047","2","CENTRUM","UNCODED","PROPHYLAXIS OR NON-THERAPEUTIC USE","UNCODED",1,"TABLET","QD","ORAL","BASELINE","12-FEB-2013","2002","","Y"],[240,"CDISCPILOT01","701","1047","2","CENTRUM","UNCODED","PROPHYLAXIS OR NON-THERAPEUTIC USE","UNCODED",1,"TABLET","QD","ORAL","WEEK 2","25-FEB-2013","2002","","Y"],[241,"CDISCPILOT01","701","1047","2","CENTRUM","UNCODED","PROPHYLAXIS OR NON-THERAPEUTIC USE","UNCODED",1,"TABLET","QD","ORAL","WEEK 4","10-MAR-2013","2002","","Y"],[242,"CDISCPILOT01","701","1047","2","CENTRUM","UNCODED","PROPHYLAXIS OR NON-THERAPEUTIC USE","UNCODED",1,"TABLET","QD","ORAL","AMBUL ECG REMOVAL","29-MAR-2013","2002","","Y"],[243,"CDISCPILOT01","701","1047","2","CENTRUM","UNCODED","PROPHYLAXIS OR NON-THERAPEUTIC USE","UNCODED",1,"TABLET","QD","ORAL","RETRIEVAL","28-JUL-2013","2002","","Y"],[244,"CDISCPILOT01","701","1047","3","PAPAYA","UNCODED","","UNCODED",2,"TABLET","PRN","ORAL","SCREENING 1","22-JAN-2013","OCT-2012","","Y"],[245,"CDISCPILOT01","701","1047","3","PAPAYA","UNCODED","","UNCODED",2,"TABLET","PRN","ORAL","SCREENING 2","10-FEB-2013","OCT-2012","","Y"],[246,"CDISCPILOT01","701","1047","3","PAPAYA","UNCODED","","UNCODED",2,"TABLET","PRN","ORAL","BASELINE","12-FEB-2013","OCT-2012","","Y"],[247,"CDISCPILOT01","701","1047","3","PAPAYA","UNCODED","","UNCODED",2,"TABLET","PRN","ORAL","WEEK 2","25-FEB-2013","OCT-2012","","Y"],[248,"CDISCPILOT01","701","1047","3","PAPAYA","UNCODED","","UNCODED",2,"TABLET","PRN","ORAL","WEEK 4","10-MAR-2013","OCT-2012","","Y"],[249,"CDISCPILOT01","701","1047","3","PAPAYA","UNCODED","","UNCODED",2,"TABLET","PRN","ORAL","AMBUL ECG REMOVAL","29-MAR-2013","OCT-2012","","Y"],[250,"CDISCPILOT01","701","1047","3","PAPAYA","UNCODED","","UNCODED",2,"TABLET","PRN","ORAL","RETRIEVAL","28-JUL-2013","OCT-2012","","Y"],[251,"CDISCPILOT01","701","1047","4","PSORCON","UNCODED","","UNCODED",0.5,"% (v/v)","QID","TOPICAL","SCREENING 1","22-JAN-2013","2009","","Y"],[252,"CDISCPILOT01","701","1047","4","PSORCON","UNCODED","","UNCODED",0.5,"% (v/v)","QID","TOPICAL","SCREENING 2","10-FEB-2013","2009","","Y"],[253,"CDISCPILOT01","701","1047","4","PSORCON","UNCODED","","UNCODED",0.5,"% (v/v)","QID","TOPICAL","BASELINE","12-FEB-2013","2009","","Y"],[254,"CDISCPILOT01","701","1047","4","PSORCON","UNCODED","","UNCODED",0.5,"% (v/v)","QID","TOPICAL","WEEK 2","25-FEB-2013","2009","","Y"],[255,"CDISCPILOT01","701","1047","4","PSORCON","UNCODED","","UNCODED",0.5,"% (v/v)","QID","TOPICAL","WEEK 4","10-MAR-2013","2009","","Y"],[256,"CDISCPILOT01","701","1047","4","PSORCON","UNCODED","","UNCODED",0.5,"% (v/v)","QID","TOPICAL","AMBUL ECG REMOVAL","29-MAR-2013","2009","","Y"],[257,"CDISCPILOT01","701","1047","4","PSORCON","UNCODED","","UNCODED",0.5,"% (v/v)","QID","TOPICAL","RETRIEVAL","28-JUL-2013","2009","","Y"],[258,"CDISCPILOT01","701","1047","5","SYNTHROID","UNCODED","","UNCODED",0.15,"mg","QD","ORAL","SCREENING 1","22-JAN-2013","2009","","Y"],[259,"CDISCPILOT01","701","1047","5","SYNTHROID","UNCODED","","UNCODED",0.15,"mg","QD","ORAL","SCREENING 2","10-FEB-2013","2009","","Y"],[260,"CDISCPILOT01","701","1047","5","SYNTHROID","UNCODED","","UNCODED",0.15,"mg","QD","ORAL","BASELINE","12-FEB-2013","2009","","Y"],[261,"CDISCPILOT01","701","1047","5","SYNTHROID","UNCODED","","UNCODED",0.15,"mg","QD","ORAL","WEEK 2","25-FEB-2013","2009","","Y"],[262,"CDISCPILOT01","701","1047","5","SYNTHROID","UNCODED","","UNCODED",0.15,"mg","QD","ORAL","WEEK 4","10-MAR-2013","2009","","Y"],[263,"CDISCPILOT01","701","1047","5","SYNTHROID","UNCODED","","UNCODED",0.15,"mg","QD","ORAL","AMBUL ECG REMOVAL","29-MAR-2013","2009","","Y"],[264,"CDISCPILOT01","701","1047","5","SYNTHROID","UNCODED","","UNCODED",0.15,"mg","QD","ORAL","RETRIEVAL","28-JUL-2013","2009","","Y"],[265,"CDISCPILOT01","701","1047","6","FELDENE","UNCODED","","UNCODED",10,"mg","QD","ORAL","SCREENING 2","10-FEB-2013","01-FEB-2013","01-FEB-2013","N"],[266,"CDISCPILOT01","701","1047","7","ROBITUSSIN-DM","UNCODED","","UNCODED",2,"tsp","QID","ORAL","WEEK 4","10-MAR-2013","07-MAR-2013","","Y"],[267,"CDISCPILOT01","701","1047","7","ROBITUSSIN-DM","UNCODED","","UNCODED",2,"tsp","QID","ORAL","AMBUL ECG REMOVAL","29-MAR-2013","07-MAR-2013","","Y"],[268,"CDISCPILOT01","701","1047","7","ROBITUSSIN-DM","UNCODED","","UNCODED",2,"tsp","QID","ORAL","RETRIEVAL","28-JUL-2013","07-MAR-2013","","Y"],[269,"CDISCPILOT01","701","1047","8","SUDAFED","UNCODED","","UNCODED",2,"TABLET","QID","ORAL","WEEK 4","10-MAR-2013","07-MAR-2013","","Y"],[270,"CDISCPILOT01","701","1047","8","SUDAFED","UNCODED","","UNCODED",2,"TABLET","QID","ORAL","AMBUL ECG REMOVAL","29-MAR-2013","07-MAR-2013","","Y"],[271,"CDISCPILOT01","701","1047","8","SUDAFED","UNCODED","","UNCODED",2,"TABLET","QID","ORAL","RETRIEVAL","28-JUL-2013","07-MAR-2013","","Y"],[272,"CDISCPILOT01","701","1097","1","CENTRUM","UNCODED","PROPHYLAXIS OR NON-THERAPEUTIC USE","UNCODED",1,"TABLET","QD","ORAL","SCREENING 1","23-DEC-2013","OCT-2013","","Y"],[273,"CDISCPILOT01","701","1097","1","CENTRUM","UNCODED","PROPHYLAXIS OR NON-THERAPEUTIC USE","UNCODED",1,"TABLET","QD","ORAL","SCREENING 2","30-DEC-2013","OCT-2013","","Y"],[274,"CDISCPILOT01","701","1097","1","CENTRUM","UNCODED","PROPHYLAXIS OR NON-THERAPEUTIC USE","UNCODED",1,"TABLET","QD","ORAL","BASELINE","01-JAN-2014","OCT-2013","","Y"],[275,"CDISCPILOT01","701","1097","1","CENTRUM","UNCODED","PROPHYLAXIS OR NON-THERAPEUTIC USE","UNCODED",1,"TABLET","QD","ORAL","WEEK 2","15-JAN-2014","OCT-2013","","Y"],[276,"CDISCPILOT01","701","1097","1","CENTRUM","UNCODED","PROPHYLAXIS OR NON-THERAPEUTIC USE","UNCODED",1,"TABLET","QD","ORAL","WEEK 4","29-JAN-2014","OCT-2013","","Y"],[277,"CDISCPILOT01","701","1097","1","CENTRUM","UNCODED","PROPHYLAXIS OR NON-THERAPEUTIC USE","UNCODED",1,"TABLET","QD","ORAL","AMBUL ECG REMOVAL","04-FEB-2014","OCT-2013","","Y"],[278,"CDISCPILOT01","701","1097","1","CENTRUM","UNCODED","PROPHYLAXIS OR NON-THERAPEUTIC USE","UNCODED",1,"TABLET","QD","ORAL","WEEK 6","11-FEB-2014","OCT-2013","","Y"],[279,"CDISCPILOT01","701","1097","1","CENTRUM","UNCODED","PROPHYLAXIS OR NON-THERAPEUTIC USE","UNCODED",1,"TABLET","QD","ORAL","WEEK 8","26-FEB-2014","OCT-2013","","Y"],[280,"CDISCPILOT01","701","1097","1","CENTRUM","UNCODED","PROPHYLAXIS OR NON-THERAPEUTIC USE","UNCODED",1,"TABLET","QD","ORAL","WEEK 12","26-MAR-2014","OCT-2013","","Y"],[281,"CDISCPILOT01","701","1097","1","CENTRUM","UNCODED","PROPHYLAXIS OR NON-THERAPEUTIC USE","UNCODED",1,"TABLET","QD","ORAL","WEEK 16","23-APR-2014","OCT-2013","","Y"],[282,"CDISCPILOT01","701","1097","1","CENTRUM","UNCODED","PROPHYLAXIS OR NON-THERAPEUTIC USE","UNCODED",1,"TABLET","QD","ORAL","WEEK 20","21-MAY-2014","OCT-2013","","Y"],[283,"CDISCPILOT01","701","1097","1","CENTRUM","UNCODED","PROPHYLAXIS OR NON-THERAPEUTIC USE","UNCODED",1,"TABLET","QD","ORAL","WEEK 24","18-JUN-2014","OCT-2013","","Y"],[284,"CDISCPILOT01","701","1097","1","CENTRUM","UNCODED","PROPHYLAXIS OR NON-THERAPEUTIC USE","UNCODED",1,"TABLET","QD","ORAL","WEEK 26","09-JUL-2014","OCT-2013","","Y"],[285,"CDISCPILOT01","701","1097","2","HYDROCORTISONE","HYDROCORTISONE","","SYSTEMIC HORMONAL PREPARATIONS, EXCL.",1,"VIAL","QD","TOPICAL","WEEK 8","26-FEB-2014","20-FEB-2014","25-FEB-2014","N"],[286,"CDISCPILOT01","701","1097","3","HYDROCORTISONE","HYDROCORTISONE","","SYSTEMIC HORMONAL PREPARATIONS, EXCL.",1,"VIAL","QD","TOPICAL","WEEK 12","26-MAR-2014","21-MAR-2014","23-MAR-2014","N"],[287,"CDISCPILOT01","701","1097","4","HYDROCORTISONE","HYDROCORTISONE","","SYSTEMIC HORMONAL PREPARATIONS, EXCL.",1,"VIAL","QD","TOPICAL","WEEK 16","23-APR-2014","18-APR-2014","22-APR-2014","N"],[288,"CDISCPILOT01","701","1097","5","HYDROCORTISONE","HYDROCORTISONE","","SYSTEMIC HORMONAL PREPARATIONS, EXCL.",1,"VIAL","PRN","TOPICAL","WEEK 24","18-JUN-2014","23-MAY-2014","","Y"],[289,"CDISCPILOT01","701","1097","5","HYDROCORTISONE","HYDROCORTISONE","","SYSTEMIC HORMONAL PREPARATIONS, EXCL.",1,"VIAL","PRN","TOPICAL","WEEK 26","09-JUL-2014","23-MAY-2014","","Y"],[290,"CDISCPILOT01","701","1111","1","KEFLEX","UNCODED","","UNCODED",500,"mg","QID","ORAL","SCREENING 1","25-AUG-2012","08-JUL-2012","","Y"],[291,"CDISCPILOT01","701","1111","1","KEFLEX","UNCODED","","UNCODED",500,"mg","QID","ORAL","SCREENING 2","05-SEP-2012","08-JUL-2012","","Y"],[292,"CDISCPILOT01","701","1111","1","KEFLEX","UNCODED","","UNCODED",500,"mg","QID","ORAL","BASELINE","07-SEP-2012","08-JUL-2012","","Y"],[293,"CDISCPILOT01","701","1111","1","KEFLEX","UNCODED","","UNCODED",500,"mg","QID","ORAL","WEEK 2","17-SEP-2012","08-JUL-2012","","Y"],[294,"CDISCPILOT01","701","1111","1","KEFLEX","UNCODED","","UNCODED",500,"mg","QID","ORAL","AE FOLLOW-UP","29-SEP-2012","08-JUL-2012","","Y"],[295,"CDISCPILOT01","701","1111","1","KEFLEX","UNCODED","","UNCODED",500,"mg","QID","ORAL","RETRIEVAL","22-FEB-2013","08-JUL-2012","","Y"],[296,"CDISCPILOT01","701","1111","2","LISINOPRIL","UNCODED","","UNCODED",2.5,"mg","QD","ORAL","SCREENING 1","25-AUG-2012","2006","","Y"],[297,"CDISCPILOT01","701","1111","2","LISINOPRIL","UNCODED","","UNCODED",2.5,"mg","QD","ORAL","SCREENING 2","05-SEP-2012","2006","","Y"],[298,"CDISCPILOT01","701","1111","2","LISINOPRIL","UNCODED","","UNCODED",2.5,"mg","QD","ORAL","BASELINE","07-SEP-2012","2006","","Y"],[299,"CDISCPILOT01","701","1111","2","LISINOPRIL","UNCODED","","UNCODED",2.5,"mg","QD","ORAL","WEEK 2","17-SEP-2012","2006","","Y"],[300,"CDISCPILOT01","701","1111","2","LISINOPRIL","UNCODED","","UNCODED",2.5,"mg","QD","ORAL","AE FOLLOW-UP","29-SEP-2012","2006","","Y"],[301,"CDISCPILOT01","701","1111","2","LISINOPRIL","UNCODED","","UNCODED",2.5,"mg","QD","ORAL","RETRIEVAL","22-FEB-2013","2006","","Y"],[302,"CDISCPILOT01","701","1111","3","MOTRIN","UNCODED","","UNCODED",1,"TABLET","PRN","ORAL","SCREENING 1","25-AUG-2012","2009","","Y"],[303,"CDISCPILOT01","701","1111","3","MOTRIN","UNCODED","","UNCODED",1,"TABLET","PRN","ORAL","SCREENING 2","05-SEP-2012","2009","","Y"],[304,"CDISCPILOT01","701","1111","3","MOTRIN","UNCODED","","UNCODED",1,"TABLET","PRN","ORAL","BASELINE","07-SEP-2012","2009","","Y"],[305,"CDISCPILOT01","701","1111","3","MOTRIN","UNCODED","","UNCODED",1,"TABLET","PRN","ORAL","WEEK 2","17-SEP-2012","2009","","Y"],[306,"CDISCPILOT01","701","1111","3","MOTRIN","UNCODED","","UNCODED",1,"TABLET","PRN","ORAL","AE FOLLOW-UP","29-SEP-2012","2009","","Y"],[307,"CDISCPILOT01","701","1111","3","MOTRIN","UNCODED","","UNCODED",1,"TABLET","PRN","ORAL","RETRIEVAL","22-FEB-2013","2009","","Y"],[308,"CDISCPILOT01","701","1111","4","PREMARIN","ESTROGENS CONJUGATED","","GENITO URINARY SYSTEM AND SEX HORMONES",0.625,"mg","","ORAL","SCREENING 1","25-AUG-2012","1996","","Y"],[309,"CDISCPILOT01","701","1111","4","PREMARIN","ESTROGENS CONJUGATED","","GENITO URINARY SYSTEM AND SEX HORMONES",0.625,"mg","","ORAL","SCREENING 2","05-SEP-2012","1996","","Y"],[310,"CDISCPILOT01","701","1111","4","PREMARIN","ESTROGENS CONJUGATED","","GENITO URINARY SYSTEM AND SEX HORMONES",0.625,"mg","","ORAL","BASELINE","07-SEP-2012","1996","","Y"],[311,"CDISCPILOT01","701","1111","4","PREMARIN","ESTROGENS CONJUGATED","","GENITO URINARY SYSTEM AND SEX HORMONES",0.625,"mg","","ORAL","WEEK 2","17-SEP-2012","1996","","Y"],[312,"CDISCPILOT01","701","1111","4","PREMARIN","ESTROGENS CONJUGATED","","GENITO URINARY SYSTEM AND SEX HORMONES",0.625,"mg","","ORAL","AE FOLLOW-UP","29-SEP-2012","1996","","Y"],[313,"CDISCPILOT01","701","1111","4","PREMARIN","ESTROGENS CONJUGATED","","GENITO URINARY SYSTEM AND SEX HORMONES",0.625,"mg","","ORAL","RETRIEVAL","22-FEB-2013","1996","","Y"],[314,"CDISCPILOT01","701","1111","5","PROVERA","UNCODED","","UNCODED",2.5,"mg","","ORAL","SCREENING 1","25-AUG-2012","1996","","Y"],[315,"CDISCPILOT01","701","1111","5","PROVERA","UNCODED","","UNCODED",2.5,"mg","","ORAL","SCREENING 2","05-SEP-2012","1996","","Y"],[316,"CDISCPILOT01","701","1111","5","PROVERA","UNCODED","","UNCODED",2.5,"mg","","ORAL","BASELINE","07-SEP-2012","1996","","Y"],[317,"CDISCPILOT01","701","1111","5","PROVERA","UNCODED","","UNCODED",2.5,"mg","","ORAL","WEEK 2","17-SEP-2012","1996","","Y"],[318,"CDISCPILOT01","701","1111","5","PROVERA","UNCODED","","UNCODED",2.5,"mg","","ORAL","AE FOLLOW-UP","29-SEP-2012","1996","","Y"],[319,"CDISCPILOT01","701","1111","5","PROVERA","UNCODED","","UNCODED",2.5,"mg","","ORAL","RETRIEVAL","22-FEB-2013","1996","","Y"],[320,"CDISCPILOT01","701","1111","6","SYNTHROID","UNCODED","","UNCODED",0.075,"mg","QD","ORAL","SCREENING 1","25-AUG-2012","1983","","Y"],[321,"CDISCPILOT01","701","1111","6","SYNTHROID","UNCODED","","UNCODED",0.075,"mg","QD","ORAL","SCREENING 2","05-SEP-2012","1983","","Y"],[322,"CDISCPILOT01","701","1111","6","SYNTHROID","UNCODED","","UNCODED",0.075,"mg","QD","ORAL","BASELINE","07-SEP-2012","1983","","Y"],[323,"CDISCPILOT01","701","1111","6","SYNTHROID","UNCODED","","UNCODED",0.075,"mg","QD","ORAL","WEEK 2","17-SEP-2012","1983","","Y"],[324,"CDISCPILOT01","701","1111","6","SYNTHROID","UNCODED","","UNCODED",0.075,"mg","QD","ORAL","AE FOLLOW-UP","29-SEP-2012","1983","","Y"],[325,"CDISCPILOT01","701","1111","6","SYNTHROID","UNCODED","","UNCODED",0.075,"mg","QD","ORAL","RETRIEVAL","22-FEB-2013","1983","","Y"],[326,"CDISCPILOT01","701","1111","7","HYDROCORTISONE, TOPICAL","UNCODED","","UNCODED",1,"VIAL","PRN","TOPICAL","SCREENING 2","05-SEP-2012","02-SEP-2012","04-SEP-2012","N"],[327,"CDISCPILOT01","701","1115","1","ASPIRIN","ACETYLSALICYLIC ACID","","NERVOUS SYSTEM",1,"TABLET","QD","ORAL","SCREENING 1","23-NOV-2012","2011","","Y"],[328,"CDISCPILOT01","701","1115","1","ASPIRIN","ACETYLSALICYLIC ACID","","NERVOUS SYSTEM",1,"TABLET","QD","ORAL","SCREENING 2","28-NOV-2012","2011","","Y"],[329,"CDISCPILOT01","701","1115","1","ASPIRIN","ACETYLSALICYLIC ACID","","NERVOUS SYSTEM",1,"TABLET","QD","ORAL","BASELINE","30-NOV-2012","2011","","Y"],[330,"CDISCPILOT01","701","1115","1","ASPIRIN","ACETYLSALICYLIC ACID","","NERVOUS SYSTEM",1,"TABLET","QD","ORAL","WEEK 2","13-DEC-2012","2011","","Y"],[331,"CDISCPILOT01","701","1115","1","ASPIRIN","ACETYLSALICYLIC ACID","","NERVOUS SYSTEM",1,"TABLET","QD","ORAL","WEEK 4","26-DEC-2012","2011","","Y"],[332,"CDISCPILOT01","701","1115","1","ASPIRIN","ACETYLSALICYLIC ACID","","NERVOUS SYSTEM",1,"TABLET","QD","ORAL","AMBUL ECG REMOVAL","28-DEC-2012","2011","","Y"],[333,"CDISCPILOT01","701","1115","1","ASPIRIN","ACETYLSALICYLIC ACID","","NERVOUS SYSTEM",1,"TABLET","QD","ORAL","WEEK 6","10-JAN-2013","2011","","Y"],[334,"CDISCPILOT01","701","1115","1","ASPIRIN","ACETYLSALICYLIC ACID","","NERVOUS SYSTEM",1,"TABLET","QD","ORAL","WEEK 8","23-JAN-2013","2011","","Y"],[335,"CDISCPILOT01","701","1115","1","ASPIRIN","ACETYLSALICYLIC ACID","","NERVOUS SYSTEM",1,"TABLET","QD","ORAL","AE FOLLOW-UP","14-FEB-2013","2011","","Y"],[336,"CDISCPILOT01","701","1115","1","ASPIRIN","ACETYLSALICYLIC ACID","","NERVOUS SYSTEM",1,"TABLET","QD","ORAL","RETRIEVAL","20-MAY-2013","2011","","Y"],[337,"CDISCPILOT01","701","1115","2","METAMUCIL","UNCODED","","UNCODED",1,"Tbsp","PRN","ORAL","SCREENING 1","23-NOV-2012","AUG-2012","","Y"],[338,"CDISCPILOT01","701","1115","2","METAMUCIL","UNCODED","","UNCODED",1,"Tbsp","PRN","ORAL","SCREENING 2","28-NOV-2012","AUG-2012","","Y"],[339,"CDISCPILOT01","701","1115","2","METAMUCIL","UNCODED","","UNCODED",1,"Tbsp","PRN","ORAL","BASELINE","30-NOV-2012","AUG-2012","","Y"],[340,"CDISCPILOT01","701","1115","2","METAMUCIL","UNCODED","","UNCODED",1,"Tbsp","PRN","ORAL","WEEK 2","13-DEC-2012","AUG-2012","","Y"],[341,"CDISCPILOT01","701","1115","2","METAMUCIL","UNCODED","","UNCODED",1,"Tbsp","PRN","ORAL","WEEK 4","26-DEC-2012","AUG-2012","","Y"],[342,"CDISCPILOT01","701","1115","2","METAMUCIL","UNCODED","","UNCODED",1,"Tbsp","PRN","ORAL","AMBUL ECG REMOVAL","28-DEC-2012","AUG-2012","","Y"],[343,"CDISCPILOT01","701","1115","2","METAMUCIL","UNCODED","","UNCODED",1,"Tbsp","PRN","ORAL","WEEK 6","10-JAN-2013","AUG-2012","","Y"],[344,"CDISCPILOT01","701","1115","2","METAMUCIL","UNCODED","","UNCODED",1,"Tbsp","PRN","ORAL","WEEK 8","23-JAN-2013","AUG-2012","","Y"],[345,"CDISCPILOT01","701","1115","2","METAMUCIL","UNCODED","","UNCODED",1,"Tbsp","PRN","ORAL","AE FOLLOW-UP","14-FEB-2013","AUG-2012","","Y"],[346,"CDISCPILOT01","701","1115","2","METAMUCIL","UNCODED","","UNCODED",1,"Tbsp","PRN","ORAL","RETRIEVAL","20-MAY-2013","AUG-2012","","Y"],[347,"CDISCPILOT01","701","1115","3","HYDROCORTISONE, TOPICAL","UNCODED","","UNCODED",1,"VIAL","PRN","TOPICAL","WEEK 8","23-JAN-2013","11-JAN-2013","","Y"],[348,"CDISCPILOT01","701","1115","3","HYDROCORTISONE, TOPICAL","UNCODED","","UNCODED",1,"VIAL","PRN","TOPICAL","AE FOLLOW-UP","14-FEB-2013","11-JAN-2013","","Y"],[349,"CDISCPILOT01","701","1115","3","HYDROCORTISONE, TOPICAL","UNCODED","","UNCODED",1,"VIAL","PRN","TOPICAL","RETRIEVAL","20-MAY-2013","11-JAN-2013","","Y"],[350,"CDISCPILOT01","701","1115","4","ASPIRIN","ACETYLSALICYLIC ACID","PROPHYLAXIS OR NON-THERAPEUTIC USE","NERVOUS SYSTEM",80,"mg","QD","ORAL","RETRIEVAL","20-MAY-2013","29-APR-2013","","Y"],[351,"CDISCPILOT01","701","1115","5","FEOSOL","UNCODED","PROPHYLAXIS OR NON-THERAPEUTIC USE","UNCODED",325,"mg","BID","ORAL","RETRIEVAL","20-MAY-2013","29-APR-2013","","Y"],[352,"CDISCPILOT01","701","1115","6","HYTRIN","UNCODED","","UNCODED",2,"mg","QD","ORAL","RETRIEVAL","20-MAY-2013","19-APR-2013","14-MAY-2013","N"],[353,"CDISCPILOT01","701","1115","7","PRAVACHOL","UNCODED","","UNCODED",20,"mg","QD","ORAL","RETRIEVAL","20-MAY-2013","08-MAY-2013","","Y"],[354,"CDISCPILOT01","701","1118","1","ASPIRIN","ACETYLSALICYLIC ACID","PROPHYLAXIS OR NON-THERAPEUTIC USE","NERVOUS SYSTEM",325,"mg","PRN","ORAL","SCREENING 1","27-FEB-2014","10-DEC-2000","","Y"],[355,"CDISCPILOT01","701","1118","1","ASPIRIN","ACETYLSALICYLIC ACID","PROPHYLAXIS OR NON-THERAPEUTIC USE","NERVOUS SYSTEM",325,"mg","PRN","ORAL","SCREENING 2","10-MAR-2014","10-DEC-2000","","Y"],[356,"CDISCPILOT01","701","1118","1","ASPIRIN","ACETYLSALICYLIC ACID","PROPHYLAXIS OR NON-THERAPEUTIC USE","NERVOUS SYSTEM",325,"mg","PRN","ORAL","BASELINE","12-MAR-2014","10-DEC-2000","","Y"],[357,"CDISCPILOT01","701","1118","1","ASPIRIN","ACETYLSALICYLIC ACID","PROPHYLAXIS OR NON-THERAPEUTIC USE","NERVOUS SYSTEM",325,"mg","PRN","ORAL","WEEK 2","26-MAR-2014","10-DEC-2000","","Y"],[358,"CDISCPILOT01","701","1118","1","ASPIRIN","ACETYLSALICYLIC ACID","PROPHYLAXIS OR NON-THERAPEUTIC USE","NERVOUS SYSTEM",325,"mg","PRN","ORAL","WEEK 4","09-APR-2014","10-DEC-2000","","Y"],[359,"CDISCPILOT01","701","1118","1","ASPIRIN","ACETYLSALICYLIC ACID","PROPHYLAXIS OR NON-THERAPEUTIC USE","NERVOUS SYSTEM",325,"mg","PRN","ORAL","AMBUL ECG REMOVAL","11-APR-2014","10-DEC-2000","","Y"],[360,"CDISCPILOT01","701","1118","1","ASPIRIN","ACETYLSALICYLIC ACID","PROPHYLAXIS OR NON-THERAPEUTIC USE","NERVOUS SYSTEM",325,"mg","PRN","ORAL","WEEK 6","23-APR-2014","10-DEC-2000","","Y"],[361,"CDISCPILOT01","701","1118","1","ASPIRIN","ACETYLSALICYLIC ACID","PROPHYLAXIS OR NON-THERAPEUTIC USE","NERVOUS SYSTEM",325,"mg","PRN","ORAL","WEEK 8","08-MAY-2014","10-DEC-2000","","Y"],[362,"CDISCPILOT01","701","1118","1","ASPIRIN","ACETYLSALICYLIC ACID","PROPHYLAXIS OR NON-THERAPEUTIC USE","NERVOUS SYSTEM",325,"mg","PRN","ORAL","WEEK 12","05-JUN-2014","10-DEC-2000","","Y"],[363,"CDISCPILOT01","701","1118","1","ASPIRIN","ACETYLSALICYLIC ACID","PROPHYLAXIS OR NON-THERAPEUTIC USE","NERVOUS SYSTEM",325,"mg","PRN","ORAL","WEEK 16","02-JUL-2014","10-DEC-2000","","Y"],[364,"CDISCPILOT01","701","1118","1","ASPIRIN","ACETYLSALICYLIC ACID","PROPHYLAXIS OR NON-THERAPEUTIC USE","NERVOUS SYSTEM",325,"mg","PRN","ORAL","WEEK 20","30-JUL-2014","10-DEC-2000","","Y"],[365,"CDISCPILOT01","701","1118","1","ASPIRIN","ACETYLSALICYLIC ACID","PROPHYLAXIS OR NON-THERAPEUTIC USE","NERVOUS SYSTEM",325,"mg","PRN","ORAL","WEEK 24","27-AUG-2014","10-DEC-2000","","Y"],[366,"CDISCPILOT01","701","1118","1","ASPIRIN","ACETYLSALICYLIC ACID","PROPHYLAXIS OR NON-THERAPEUTIC USE","NERVOUS SYSTEM",325,"mg","PRN","ORAL","WEEK 26","09-SEP-2014","10-DEC-2000","","Y"],[367,"CDISCPILOT01","701","1118","2","MULTIVITAMIN","UNCODED","PROPHYLAXIS OR NON-THERAPEUTIC USE","UNCODED",1,"TABLET","QD","ORAL","SCREENING 1","27-FEB-2014","21-JAN-2012","","Y"],[368,"CDISCPILOT01","701","1118","2","MULTIVITAMIN","UNCODED","PROPHYLAXIS OR NON-THERAPEUTIC USE","UNCODED",1,"TABLET","QD","ORAL","SCREENING 2","10-MAR-2014","21-JAN-2012","","Y"],[369,"CDISCPILOT01","701","1118","2","MULTIVITAMIN","UNCODED","PROPHYLAXIS OR NON-THERAPEUTIC USE","UNCODED",1,"TABLET","QD","ORAL","BASELINE","12-MAR-2014","21-JAN-2012","","Y"],[370,"CDISCPILOT01","701","1118","2","MULTIVITAMIN","UNCODED","PROPHYLAXIS OR NON-THERAPEUTIC USE","UNCODED",1,"TABLET","QD","ORAL","WEEK 2","26-MAR-2014","21-JAN-2012","","Y"],[371,"CDISCPILOT01","701","1118","2","MULTIVITAMIN","UNCODED","PROPHYLAXIS OR NON-THERAPEUTIC USE","UNCODED",1,"TABLET","QD","ORAL","WEEK 4","09-APR-2014","21-JAN-2012","","Y"],[372,"CDISCPILOT01","701","1118","2","MULTIVITAMIN","UNCODED","PROPHYLAXIS OR NON-THERAPEUTIC USE","UNCODED",1,"TABLET","QD","ORAL","AMBUL ECG REMOVAL","11-APR-2014","21-JAN-2012","","Y"],[373,"CDISCPILOT01","701","1118","2","MULTIVITAMIN","UNCODED","PROPHYLAXIS OR NON-THERAPEUTIC USE","UNCODED",1,"TABLET","QD","ORAL","WEEK 6","23-APR-2014","21-JAN-2012","","Y"],[374,"CDISCPILOT01","701","1118","2","MULTIVITAMIN","UNCODED","PROPHYLAXIS OR NON-THERAPEUTIC USE","UNCODED",1,"TABLET","QD","ORAL","WEEK 8","08-MAY-2014","21-JAN-2012","","Y"],[375,"CDISCPILOT01","701","1118","2","MULTIVITAMIN","UNCODED","PROPHYLAXIS OR NON-THERAPEUTIC USE","UNCODED",1,"TABLET","QD","ORAL","WEEK 12","05-JUN-2014","21-JAN-2012","","Y"],[376,"CDISCPILOT01","701","1118","2","MULTIVITAMIN","UNCODED","PROPHYLAXIS OR NON-THERAPEUTIC USE","UNCODED",1,"TABLET","QD","ORAL","WEEK 16","02-JUL-2014","21-JAN-2012","","Y"],[377,"CDISCPILOT01","701","1118","2","MULTIVITAMIN","UNCODED","PROPHYLAXIS OR NON-THERAPEUTIC USE","UNCODED",1,"TABLET","QD","ORAL","WEEK 20","30-JUL-2014","21-JAN-2012","","Y"],[378,"CDISCPILOT01","701","1118","2","MULTIVITAMIN","UNCODED","PROPHYLAXIS OR NON-THERAPEUTIC USE","UNCODED",1,"TABLET","QD","ORAL","WEEK 24","27-AUG-2014","21-JAN-2012","","Y"],[379,"CDISCPILOT01","701","1118","2","MULTIVITAMIN","UNCODED","PROPHYLAXIS OR NON-THERAPEUTIC USE","UNCODED",1,"TABLET","QD","ORAL","WEEK 26","09-SEP-2014","21-JAN-2012","","Y"],[380,"CDISCPILOT01","701","1130","1","CALCIUM","CALCIUM","PROPHYLAXIS OR NON-THERAPEUTIC USE","ALIMENTARY TRACT AND METABOLISM",1,"TABLET","QD","ORAL","SCREENING 1","09-FEB-2014","2002","","Y"],[381,"CDISCPILOT01","701","1130","1","CALCIUM","CALCIUM","PROPHYLAXIS OR NON-THERAPEUTIC USE","ALIMENTARY TRACT AND METABOLISM",1,"TABLET","QD","ORAL","SCREENING 2","13-FEB-2014","2002","","Y"],[382,"CDISCPILOT01","701","1130","1","CALCIUM","CALCIUM","PROPHYLAXIS OR NON-THERAPEUTIC USE","ALIMENTARY TRACT AND METABOLISM",1,"TABLET","QD","ORAL","BASELINE","15-FEB-2014","2002","","Y"],[383,"CDISCPILOT01","701","1130","1","CALCIUM","CALCIUM","PROPHYLAXIS OR NON-THERAPEUTIC USE","ALIMENTARY TRACT AND METABOLISM",1,"TABLET","QD","ORAL","WEEK 2","01-MAR-2014","2002","","Y"],[384,"CDISCPILOT01","701","1130","1","CALCIUM","CALCIUM","PROPHYLAXIS OR NON-THERAPEUTIC USE","ALIMENTARY TRACT AND METABOLISM",1,"TABLET","QD","ORAL","WEEK 4","15-MAR-2014","2002","","Y"],[385,"CDISCPILOT01","701","1130","1","CALCIUM","CALCIUM","PROPHYLAXIS OR NON-THERAPEUTIC USE","ALIMENTARY TRACT AND METABOLISM",1,"TABLET","QD","ORAL","AMBUL ECG REMOVAL","17-MAR-2014","2002","","Y"],[386,"CDISCPILOT01","701","1130","1","CALCIUM","CALCIUM","PROPHYLAXIS OR NON-THERAPEUTIC USE","ALIMENTARY TRACT AND METABOLISM",1,"TABLET","QD","ORAL","WEEK 6","29-MAR-2014","2002","","Y"],[387,"CDISCPILOT01","701","1130","1","CALCIUM","CALCIUM","PROPHYLAXIS OR NON-THERAPEUTIC USE","ALIMENTARY TRACT AND METABOLISM",1,"TABLET","QD","ORAL","WEEK 8","12-APR-2014","2002","","Y"],[388,"CDISCPILOT01","701","1130","1","CALCIUM","CALCIUM","PROPHYLAXIS OR NON-THERAPEUTIC USE","ALIMENTARY TRACT AND METABOLISM",1,"TABLET","QD","ORAL","WEEK 12","16-MAY-2014","2002","","Y"],[389,"CDISCPILOT01","701","1130","1","CALCIUM","CALCIUM","PROPHYLAXIS OR NON-THERAPEUTIC USE","ALIMENTARY TRACT AND METABOLISM",1,"TABLET","QD","ORAL","WEEK 16","07-JUN-2014","2002","","Y"],[390,"CDISCPILOT01","701","1130","1","CALCIUM","CALCIUM","PROPHYLAXIS OR NON-THERAPEUTIC USE","ALIMENTARY TRACT AND METABOLISM",1,"TABLET","QD","ORAL","WEEK 20","02-JUL-2014","2002","","Y"],[391,"CDISCPILOT01","701","1130","1","CALCIUM","CALCIUM","PROPHYLAXIS OR NON-THERAPEUTIC USE","ALIMENTARY TRACT AND METABOLISM",1,"TABLET","QD","ORAL","WEEK 24","02-AUG-2014","2002","","Y"],[392,"CDISCPILOT01","701","1130","1","CALCIUM","CALCIUM","PROPHYLAXIS OR NON-THERAPEUTIC USE","ALIMENTARY TRACT AND METABOLISM",1,"TABLET","QD","ORAL","WEEK 26","16-AUG-2014","2002","","Y"],[393,"CDISCPILOT01","701","1130","2","EUCERIN CREME","UNCODED","","UNCODED",1,"VIAL","TID","TOPICAL","SCREENING 1","09-FEB-2014","SEP-2013","","Y"],[394,"CDISCPILOT01","701","1130","2","EUCERIN CREME","UNCODED","","UNCODED",1,"VIAL","TID","TOPICAL","SCREENING 2","13-FEB-2014","SEP-2013","","Y"],[395,"CDISCPILOT01","701","1130","2","EUCERIN CREME","UNCODED","","UNCODED",1,"VIAL","TID","TOPICAL","BASELINE","15-FEB-2014","SEP-2013","","Y"],[396,"CDISCPILOT01","701","1130","2","EUCERIN CREME","UNCODED","","UNCODED",1,"VIAL","TID","TOPICAL","WEEK 2","01-MAR-2014","SEP-2013","","Y"],[397,"CDISCPILOT01","701","1130","2","EUCERIN CREME","UNCODED","","UNCODED",1,"VIAL","TID","TOPICAL","WEEK 4","15-MAR-2014","SEP-2013","","Y"],[398,"CDISCPILOT01","701","1130","2","EUCERIN CREME","UNCODED","","UNCODED",1,"VIAL","TID","TOPICAL","AMBUL ECG REMOVAL","17-MAR-2014","SEP-2013","","Y"],[399,"CDISCPILOT01","701","1130","2","EUCERIN CREME","UNCODED","","UNCODED",1,"VIAL","TID","TOPICAL","WEEK 6","29-MAR-2014","SEP-2013","","Y"],[400,"CDISCPILOT01","701","1130","2","EUCERIN CREME","UNCODED","","UNCODED",1,"VIAL","TID","TOPICAL","WEEK 8","12-APR-2014","SEP-2013","","Y"],[401,"CDISCPILOT01","701","1130","2","EUCERIN CREME","UNCODED","","UNCODED",1,"VIAL","TID","TOPICAL","WEEK 12","16-MAY-2014","SEP-2013","","Y"],[402,"CDISCPILOT01","701","1130","2","EUCERIN CREME","UNCODED","","UNCODED",1,"VIAL","TID","TOPICAL","WEEK 16","07-JUN-2014","SEP-2013","","Y"],[403,"CDISCPILOT01","701","1130","2","EUCERIN CREME","UNCODED","","UNCODED",1,"VIAL","TID","TOPICAL","WEEK 20","02-JUL-2014","SEP-2013","","Y"],[404,"CDISCPILOT01","701","1130","2","EUCERIN CREME","UNCODED","","UNCODED",1,"VIAL","TID","TOPICAL","WEEK 24","02-AUG-2014","SEP-2013","","Y"],[405,"CDISCPILOT01","701","1130","2","EUCERIN CREME","UNCODED","","UNCODED",1,"VIAL","TID","TOPICAL","WEEK 26","16-AUG-2014","SEP-2013","","Y"],[406,"CDISCPILOT01","701","1130","3","MULTIVITAMINS","UNCODED","PROPHYLAXIS OR NON-THERAPEUTIC USE","UNCODED",4,"TABLET","QD","ORAL","SCREENING 1","09-FEB-2014","2002","","Y"],[407,"CDISCPILOT01","701","1130","3","MULTIVITAMINS","UNCODED","PROPHYLAXIS OR NON-THERAPEUTIC USE","UNCODED",4,"TABLET","QD","ORAL","SCREENING 2","13-FEB-2014","2002","","Y"],[408,"CDISCPILOT01","701","1130","3","MULTIVITAMINS","UNCODED","PROPHYLAXIS OR NON-THERAPEUTIC USE","UNCODED",4,"TABLET","QD","ORAL","BASELINE","15-FEB-2014","2002","","Y"],[409,"CDISCPILOT01","701","1130","3","MULTIVITAMINS","UNCODED","PROPHYLAXIS OR NON-THERAPEUTIC USE","UNCODED",4,"TABLET","QD","ORAL","WEEK 2","01-MAR-2014","2002","","Y"],[410,"CDISCPILOT01","701","1130","3","MULTIVITAMINS","UNCODED","PROPHYLAXIS OR NON-THERAPEUTIC USE","UNCODED",4,"TABLET","QD","ORAL","WEEK 4","15-MAR-2014","2002","","Y"],[411,"CDISCPILOT01","701","1130","3","MULTIVITAMINS","UNCODED","PROPHYLAXIS OR NON-THERAPEUTIC USE","UNCODED",4,"TABLET","QD","ORAL","AMBUL ECG REMOVAL","17-MAR-2014","2002","","Y"],[412,"CDISCPILOT01","701","1130","3","MULTIVITAMINS","UNCODED","PROPHYLAXIS OR NON-THERAPEUTIC USE","UNCODED",4,"TABLET","QD","ORAL","WEEK 6","29-MAR-2014","2002","","Y"],[413,"CDISCPILOT01","701","1130","3","MULTIVITAMINS","UNCODED","PROPHYLAXIS OR NON-THERAPEUTIC USE","UNCODED",4,"TABLET","QD","ORAL","WEEK 8","12-APR-2014","2002","","Y"],[414,"CDISCPILOT01","701","1130","3","MULTIVITAMINS","UNCODED","PROPHYLAXIS OR NON-THERAPEUTIC USE","UNCODED",4,"TABLET","QD","ORAL","WEEK 12","16-MAY-2014","2002","","Y"],[415,"CDISCPILOT01","701","1130","3","MULTIVITAMINS","UNCODED","PROPHYLAXIS OR NON-THERAPEUTIC USE","UNCODED",4,"TABLET","QD","ORAL","WEEK 16","07-JUN-2014","2002","","Y"],[416,"CDISCPILOT01","701","1130","3","MULTIVITAMINS","UNCODED","PROPHYLAXIS OR NON-THERAPEUTIC USE","UNCODED",4,"TABLET","QD","ORAL","WEEK 20","02-JUL-2014","2002","","Y"],[417,"CDISCPILOT01","701","1130","3","MULTIVITAMINS","UNCODED","PROPHYLAXIS OR NON-THERAPEUTIC USE","UNCODED",4,"TABLET","QD","ORAL","WEEK 24","02-AUG-2014","2002","","Y"],[418,"CDISCPILOT01","701","1130","3","MULTIVITAMINS","UNCODED","PROPHYLAXIS OR NON-THERAPEUTIC USE","UNCODED",4,"TABLET","QD","ORAL","WEEK 26","16-AUG-2014","2002","","Y"],[419,"CDISCPILOT01","701","1130","4","POTASSIUM","UNCODED","PROPHYLAXIS OR NON-THERAPEUTIC USE","UNCODED",1,"TABLET","QD","ORAL","SCREENING 1","09-FEB-2014","2002","","Y"],[420,"CDISCPILOT01","701","1130","4","POTASSIUM","UNCODED","PROPHYLAXIS OR NON-THERAPEUTIC USE","UNCODED",1,"TABLET","QD","ORAL","SCREENING 2","13-FEB-2014","2002","","Y"],[421,"CDISCPILOT01","701","1130","4","POTASSIUM","UNCODED","PROPHYLAXIS OR NON-THERAPEUTIC USE","UNCODED",1,"TABLET","QD","ORAL","BASELINE","15-FEB-2014","2002","","Y"],[422,"CDISCPILOT01","701","1130","4","POTASSIUM","UNCODED","PROPHYLAXIS OR NON-THERAPEUTIC USE","UNCODED",1,"TABLET","QD","ORAL","WEEK 2","01-MAR-2014","2002","","Y"],[423,"CDISCPILOT01","701","1130","4","POTASSIUM","UNCODED","PROPHYLAXIS OR NON-THERAPEUTIC USE","UNCODED",1,"TABLET","QD","ORAL","WEEK 4","15-MAR-2014","2002","","Y"],[424,"CDISCPILOT01","701","1130","4","POTASSIUM","UNCODED","PROPHYLAXIS OR NON-THERAPEUTIC USE","UNCODED",1,"TABLET","QD","ORAL","AMBUL ECG REMOVAL","17-MAR-2014","2002","","Y"],[425,"CDISCPILOT01","701","1130","4","POTASSIUM","UNCODED","PROPHYLAXIS OR NON-THERAPEUTIC USE","UNCODED",1,"TABLET","QD","ORAL","WEEK 6","29-MAR-2014","2002","","Y"],[426,"CDISCPILOT01","701","1130","4","POTASSIUM","UNCODED","PROPHYLAXIS OR NON-THERAPEUTIC USE","UNCODED",1,"TABLET","QD","ORAL","WEEK 8","12-APR-2014","2002","","Y"],[427,"CDISCPILOT01","701","1130","4","POTASSIUM","UNCODED","PROPHYLAXIS OR NON-THERAPEUTIC USE","UNCODED",1,"TABLET","QD","ORAL","WEEK 12","16-MAY-2014","2002","","Y"],[428,"CDISCPILOT01","701","1130","4","POTASSIUM","UNCODED","PROPHYLAXIS OR NON-THERAPEUTIC USE","UNCODED",1,"TABLET","QD","ORAL","WEEK 16","07-JUN-2014","2002","","Y"],[429,"CDISCPILOT01","701","1130","4","POTASSIUM","UNCODED","PROPHYLAXIS OR NON-THERAPEUTIC USE","UNCODED",1,"TABLET","QD","ORAL","WEEK 20","02-JUL-2014","2002","","Y"],[430,"CDISCPILOT01","701","1130","4","POTASSIUM","UNCODED","PROPHYLAXIS OR NON-THERAPEUTIC USE","UNCODED",1,"TABLET","QD","ORAL","WEEK 24","02-AUG-2014","2002","","Y"],[431,"CDISCPILOT01","701","1130","4","POTASSIUM","UNCODED","PROPHYLAXIS OR NON-THERAPEUTIC USE","UNCODED",1,"TABLET","QD","ORAL","WEEK 26","16-AUG-2014","2002","","Y"],[432,"CDISCPILOT01","701","1130","5","SULFAMETHOXAZOLE","UNCODED","","UNCODED",1,"TABLET","BID","ORAL","WEEK 4","15-MAR-2014","10-MAR-2014","16-MAR-2014","N"],[433,"CDISCPILOT01","701","1130","5","SULFAMETHOXAZOLE","UNCODED","","UNCODED",1,"TABLET","BID","ORAL","AMBUL ECG REMOVAL","17-MAR-2014","10-MAR-2014","16-MAR-2014","N"],[434,"CDISCPILOT01","701","1130","6","ANTIHISTAMINES FOR SYSTEMIC USE","UNCODED","","UNCODED",2,"TABLET","PRN","ORAL","WEEK 12","16-MAY-2014","09-MAY-2014","09-MAY-2014","N"],[435,"CDISCPILOT01","701","1133","1","MULTIVITAMIN","UNCODED","PROPHYLAXIS OR NON-THERAPEUTIC USE","UNCODED",1,"TABLET","QD","ORAL","SCREENING 1","23-OCT-2012","2006","","Y"],[436,"CDISCPILOT01","701","1133","1","MULTIVITAMIN","UNCODED","PROPHYLAXIS OR NON-THERAPEUTIC USE","UNCODED",1,"TABLET","QD","ORAL","SCREENING 2","26-OCT-2012","2006","","Y"],[437,"CDISCPILOT01","701","1133","1","MULTIVITAMIN","UNCODED","PROPHYLAXIS OR NON-THERAPEUTIC USE","UNCODED",1,"TABLET","QD","ORAL","BASELINE","28-OCT-2012","2006","","Y"],[438,"CDISCPILOT01","701","1133","1","MULTIVITAMIN","UNCODED","PROPHYLAXIS OR NON-THERAPEUTIC USE","UNCODED",1,"TABLET","QD","ORAL","WEEK 2","12-NOV-2012","2006","","Y"],[439,"CDISCPILOT01","701","1133","1","MULTIVITAMIN","UNCODED","PROPHYLAXIS OR NON-THERAPEUTIC USE","UNCODED",1,"TABLET","QD","ORAL","WEEK 4","26-NOV-2012","2006","","Y"],[440,"CDISCPILOT01","701","1133","1","MULTIVITAMIN","UNCODED","PROPHYLAXIS OR NON-THERAPEUTIC USE","UNCODED",1,"TABLET","QD","ORAL","AMBUL ECG REMOVAL","28-NOV-2012","2006","","Y"],[441,"CDISCPILOT01","701","1133","1","MULTIVITAMIN","UNCODED","PROPHYLAXIS OR NON-THERAPEUTIC USE","UNCODED",1,"TABLET","QD","ORAL","WEEK 6","11-DEC-2012","2006","","Y"],[442,"CDISCPILOT01","701","1133","1","MULTIVITAMIN","UNCODED","PROPHYLAXIS OR NON-THERAPEUTIC USE","UNCODED",1,"TABLET","QD","ORAL","WEEK 8","24-DEC-2012","2006","","Y"],[443,"CDISCPILOT01","701","1133","1","MULTIVITAMIN","UNCODED","PROPHYLAXIS OR NON-THERAPEUTIC USE","UNCODED",1,"TABLET","QD","ORAL","WEEK 12","22-JAN-2013","2006","","Y"],[444,"CDISCPILOT01","701","1133","1","MULTIVITAMIN","UNCODED","PROPHYLAXIS OR NON-THERAPEUTIC USE","UNCODED",1,"TABLET","QD","ORAL","WEEK 16","18-FEB-2013","2006","","Y"],[445,"CDISCPILOT01","701","1133","1","MULTIVITAMIN","UNCODED","PROPHYLAXIS OR NON-THERAPEUTIC USE","UNCODED",1,"TABLET","QD","ORAL","WEEK 20","18-MAR-2013","2006","","Y"],[446,"CDISCPILOT01","701","1133","1","MULTIVITAMIN","UNCODED","PROPHYLAXIS OR NON-THERAPEUTIC USE","UNCODED",1,"TABLET","QD","ORAL","WEEK 24","18-APR-2013","2006","","Y"],[447,"CDISCPILOT01","701","1133","1","MULTIVITAMIN","UNCODED","PROPHYLAXIS OR NON-THERAPEUTIC USE","UNCODED",1,"TABLET","QD","ORAL","WEEK 26","29-APR-2013","2006","","Y"],[448,"CDISCPILOT01","701","1133","2","HYDROCORTISONE","HYDROCORTISONE","","SYSTEMIC HORMONAL PREPARATIONS, EXCL.",1,"VIAL","PRN","TOPICAL","WEEK 16","18-FEB-2013","23-JAN-2013","","Y"],[449,"CDISCPILOT01","701","1133","2","HYDROCORTISONE","HYDROCORTISONE","","SYSTEMIC HORMONAL PREPARATIONS, EXCL.",1,"VIAL","PRN","TOPICAL","WEEK 20","18-MAR-2013","23-JAN-2013","","Y"],[450,"CDISCPILOT01","701","1133","2","HYDROCORTISONE","HYDROCORTISONE","","SYSTEMIC HORMONAL PREPARATIONS, EXCL.",1,"VIAL","PRN","TOPICAL","WEEK 24","18-APR-2013","23-JAN-2013","","Y"],[451,"CDISCPILOT01","701","1133","2","HYDROCORTISONE","HYDROCORTISONE","","SYSTEMIC HORMONAL PREPARATIONS, EXCL.",1,"VIAL","PRN","TOPICAL","WEEK 26","29-APR-2013","23-JAN-2013","","Y"],[452,"CDISCPILOT01","701","1146","1","BECONASE","UNCODED","","UNCODED",2,"PUFF","PRN","NASAL","SCREENING 1","07-MAY-2013","2008","","Y"],[453,"CDISCPILOT01","701","1146","1","BECONASE","UNCODED","","UNCODED",2,"PUFF","PRN","NASAL","SCREENING 2","18-MAY-2013","2008","","Y"],[454,"CDISCPILOT01","701","1146","1","BECONASE","UNCODED","","UNCODED",2,"PUFF","PRN","NASAL","BASELINE","20-MAY-2013","2008","","Y"],[455,"CDISCPILOT01","701","1146","1","BECONASE","UNCODED","","UNCODED",2,"PUFF","PRN","NASAL","WEEK 2","03-JUN-2013","2008","","Y"],[456,"CDISCPILOT01","701","1146","1","BECONASE","UNCODED","","UNCODED",2,"PUFF","PRN","NASAL","WEEK 4","16-JUN-2013","2008","","Y"],[457,"CDISCPILOT01","701","1146","1","BECONASE","UNCODED","","UNCODED",2,"PUFF","PRN","NASAL","AMBUL ECG REMOVAL","18-JUN-2013","2008","","Y"],[458,"CDISCPILOT01","701","1146","1","BECONASE","UNCODED","","UNCODED",2,"PUFF","PRN","NASAL","WEEK 6","30-JUN-2013","2008","","Y"],[459,"CDISCPILOT01","701","1146","1","BECONASE","UNCODED","","UNCODED",2,"PUFF","PRN","NASAL","AE FOLLOW-UP","15-JUL-2013","2008","","Y"],[460,"CDISCPILOT01","701","1146","2","DOCUSATE","UNCODED","","UNCODED",2,"TABLET","QD","ORAL","SCREENING 1","07-MAY-2013","2008","","Y"],[461,"CDISCPILOT01","701","1146","2","DOCUSATE","UNCODED","","UNCODED",2,"TABLET","QD","ORAL","SCREENING 2","18-MAY-2013","2008","","Y"],[462,"CDISCPILOT01","701","1146","2","DOCUSATE","UNCODED","","UNCODED",2,"TABLET","QD","ORAL","BASELINE","20-MAY-2013","2008","","Y"],[463,"CDISCPILOT01","701","1146","2","DOCUSATE","UNCODED","","UNCODED",2,"TABLET","QD","ORAL","WEEK 2","03-JUN-2013","2008","","Y"],[464,"CDISCPILOT01","701","1146","2","DOCUSATE","UNCODED","","UNCODED",2,"TABLET","QD","ORAL","WEEK 4","16-JUN-2013","2008","","Y"],[465,"CDISCPILOT01","701","1146","2","DOCUSATE","UNCODED","","UNCODED",2,"TABLET","QD","ORAL","AMBUL ECG REMOVAL","18-JUN-2013","2008","","Y"],[466,"CDISCPILOT01","701","1146","2","DOCUSATE","UNCODED","","UNCODED",2,"TABLET","QD","ORAL","WEEK 6","30-JUN-2013","2008","","Y"],[467,"CDISCPILOT01","701","1146","2","DOCUSATE","UNCODED","","UNCODED",2,"TABLET","QD","ORAL","AE FOLLOW-UP","15-JUL-2013","2008","","Y"],[468,"CDISCPILOT01","701","1146","3","MINERALS NOS","UNCODED","","UNCODED",15,"TABLET","PRN","ORAL","SCREENING 1","07-MAY-2013","2012","","Y"],[469,"CDISCPILOT01","701","1146","3","MINERALS NOS","UNCODED","","UNCODED",15,"TABLET","PRN","ORAL","SCREENING 2","18-MAY-2013","2012","","Y"],[470,"CDISCPILOT01","701","1146","3","MINERALS NOS","UNCODED","","UNCODED",15,"TABLET","PRN","ORAL","BASELINE","20-MAY-2013","2012","","Y"],[471,"CDISCPILOT01","701","1146","3","MINERALS NOS","UNCODED","","UNCODED",15,"TABLET","PRN","ORAL","WEEK 2","03-JUN-2013","2012","","Y"],[472,"CDISCPILOT01","701","1146","3","MINERALS NOS","UNCODED","","UNCODED",15,"TABLET","PRN","ORAL","WEEK 4","16-JUN-2013","2012","","Y"],[473,"CDISCPILOT01","701","1146","3","MINERALS NOS","UNCODED","","UNCODED",15,"TABLET","PRN","ORAL","AMBUL ECG REMOVAL","18-JUN-2013","2012","","Y"],[474,"CDISCPILOT01","701","1146","3","MINERALS NOS","UNCODED","","UNCODED",15,"TABLET","PRN","ORAL","WEEK 6","30-JUN-2013","2012","","Y"],[475,"CDISCPILOT01","701","1146","3","MINERALS NOS","UNCODED","","UNCODED",15,"TABLET","PRN","ORAL","AE FOLLOW-UP","15-JUL-2013","2012","","Y"],[476,"CDISCPILOT01","701","1146","4","MOTRIN","UNCODED","","UNCODED",1,"TABLET","PRN","ORAL","SCREENING 1","07-MAY-2013","1966","","Y"],[477,"CDISCPILOT01","701","1146","4","MOTRIN","UNCODED","","UNCODED",1,"TABLET","PRN","ORAL","SCREENING 2","18-MAY-2013","1966","","Y"],[478,"CDISCPILOT01","701","1146","4","MOTRIN","UNCODED","","UNCODED",1,"TABLET","PRN","ORAL","BASELINE","20-MAY-2013","1966","","Y"],[479,"CDISCPILOT01","701","1146","4","MOTRIN","UNCODED","","UNCODED",1,"TABLET","PRN","ORAL","WEEK 2","03-JUN-2013","1966","","Y"],[480,"CDISCPILOT01","701","1146","4","MOTRIN","UNCODED","","UNCODED",1,"TABLET","PRN","ORAL","WEEK 4","16-JUN-2013","1966","","Y"],[481,"CDISCPILOT01","701","1146","4","MOTRIN","UNCODED","","UNCODED",1,"TABLET","PRN","ORAL","AMBUL ECG REMOVAL","18-JUN-2013","1966","","Y"],[482,"CDISCPILOT01","701","1146","4","MOTRIN","UNCODED","","UNCODED",1,"TABLET","PRN","ORAL","WEEK 6","30-JUN-2013","1966","","Y"],[483,"CDISCPILOT01","701","1146","4","MOTRIN","UNCODED","","UNCODED",1,"TABLET","PRN","ORAL","AE FOLLOW-UP","15-JUL-2013","1966","","Y"],[484,"CDISCPILOT01","701","1146","5","MULTIVITAMIN","UNCODED","PROPHYLAXIS OR NON-THERAPEUTIC USE","UNCODED",1,"TABLET","QD","ORAL","SCREENING 1","07-MAY-2013","2006","","Y"],[485,"CDISCPILOT01","701","1146","5","MULTIVITAMIN","UNCODED","PROPHYLAXIS OR NON-THERAPEUTIC USE","UNCODED",1,"TABLET","QD","ORAL","SCREENING 2","18-MAY-2013","2006","","Y"],[486,"CDISCPILOT01","701","1146","5","MULTIVITAMIN","UNCODED","PROPHYLAXIS OR NON-THERAPEUTIC USE","UNCODED",1,"TABLET","QD","ORAL","BASELINE","20-MAY-2013","2006","","Y"],[487,"CDISCPILOT01","701","1146","5","MULTIVITAMIN","UNCODED","PROPHYLAXIS OR NON-THERAPEUTIC USE","UNCODED",1,"TABLET","QD","ORAL","WEEK 2","03-JUN-2013","2006","","Y"],[488,"CDISCPILOT01","701","1146","5","MULTIVITAMIN","UNCODED","PROPHYLAXIS OR NON-THERAPEUTIC USE","UNCODED",1,"TABLET","QD","ORAL","WEEK 4","16-JUN-2013","2006","","Y"],[489,"CDISCPILOT01","701","1146","5","MULTIVITAMIN","UNCODED","PROPHYLAXIS OR NON-THERAPEUTIC USE","UNCODED",1,"TABLET","QD","ORAL","AMBUL ECG REMOVAL","18-JUN-2013","2006","","Y"],[490,"CDISCPILOT01","701","1146","5","MULTIVITAMIN","UNCODED","PROPHYLAXIS OR NON-THERAPEUTIC USE","UNCODED",1,"TABLET","QD","ORAL","WEEK 6","30-JUN-2013","2006","","Y"],[491,"CDISCPILOT01","701","1146","5","MULTIVITAMIN","UNCODED","PROPHYLAXIS OR NON-THERAPEUTIC USE","UNCODED",1,"TABLET","QD","ORAL","AE FOLLOW-UP","15-JUL-2013","2006","","Y"],[492,"CDISCPILOT01","701","1146","6","PREMARIN","ESTROGENS CONJUGATED","PROPHYLAXIS OR NON-THERAPEUTIC USE","GENITO URINARY SYSTEM AND SEX HORMONES",0.625,"mg","QD","ORAL","SCREENING 1","07-MAY-2013","1987","","Y"],[493,"CDISCPILOT01","701","1146","6","PREMARIN","ESTROGENS CONJUGATED","PROPHYLAXIS OR NON-THERAPEUTIC USE","GENITO URINARY SYSTEM AND SEX HORMONES",0.625,"mg","QD","ORAL","SCREENING 2","18-MAY-2013","1987","","Y"],[494,"CDISCPILOT01","701","1146","6","PREMARIN","ESTROGENS CONJUGATED","PROPHYLAXIS OR NON-THERAPEUTIC USE","GENITO URINARY SYSTEM AND SEX HORMONES",0.625,"mg","QD","ORAL","BASELINE","20-MAY-2013","1987","","Y"],[495,"CDISCPILOT01","701","1146","6","PREMARIN","ESTROGENS CONJUGATED","PROPHYLAXIS OR NON-THERAPEUTIC USE","GENITO URINARY SYSTEM AND SEX HORMONES",0.625,"mg","QD","ORAL","WEEK 2","03-JUN-2013","1987","","Y"],[496,"CDISCPILOT01","701","1146","6","PREMARIN","ESTROGENS CONJUGATED","PROPHYLAXIS OR NON-THERAPEUTIC USE","GENITO URINARY SYSTEM AND SEX HORMONES",0.625,"mg","QD","ORAL","WEEK 4","16-JUN-2013","1987","","Y"],[497,"CDISCPILOT01","701","1146","6","PREMARIN","ESTROGENS CONJUGATED","PROPHYLAXIS OR NON-THERAPEUTIC USE","GENITO URINARY SYSTEM AND SEX HORMONES",0.625,"mg","QD","ORAL","AMBUL ECG REMOVAL","18-JUN-2013","1987","","Y"],[498,"CDISCPILOT01","701","1146","6","PREMARIN","ESTROGENS CONJUGATED","PROPHYLAXIS OR NON-THERAPEUTIC USE","GENITO URINARY SYSTEM AND SEX HORMONES",0.625,"mg","QD","ORAL","WEEK 6","30-JUN-2013","1987","","Y"],[499,"CDISCPILOT01","701","1146","6","PREMARIN","ESTROGENS CONJUGATED","PROPHYLAXIS OR NON-THERAPEUTIC USE","GENITO URINARY SYSTEM AND SEX HORMONES",0.625,"mg","QD","ORAL","AE FOLLOW-UP","15-JUL-2013","1987","","Y"],[500,"CDISCPILOT01","701","1146","7","PROVERA","UNCODED","PROPHYLAXIS OR NON-THERAPEUTIC USE","UNCODED",2.5,"ug","QD","ORAL","SCREENING 1","07-MAY-2013","1987","","Y"],[501,"CDISCPILOT01","701","1146","7","PROVERA","UNCODED","PROPHYLAXIS OR NON-THERAPEUTIC USE","UNCODED",2.5,"ug","QD","ORAL","SCREENING 2","18-MAY-2013","1987","","Y"],[502,"CDISCPILOT01","701","1146","7","PROVERA","UNCODED","PROPHYLAXIS OR NON-THERAPEUTIC USE","UNCODED",2.5,"ug","QD","ORAL","BASELINE","20-MAY-2013","1987","","Y"],[503,"CDISCPILOT01","701","1146","7","PROVERA","UNCODED","PROPHYLAXIS OR NON-THERAPEUTIC USE","UNCODED",2.5,"ug","QD","ORAL","WEEK 2","03-JUN-2013","1987","","Y"],[504,"CDISCPILOT01","701","1146","7","PROVERA","UNCODED","PROPHYLAXIS OR NON-THERAPEUTIC USE","UNCODED",2.5,"ug","QD","ORAL","WEEK 4","16-JUN-2013","1987","","Y"],[505,"CDISCPILOT01","701","1146","7","PROVERA","UNCODED","PROPHYLAXIS OR NON-THERAPEUTIC USE","UNCODED",2.5,"ug","QD","ORAL","AMBUL ECG REMOVAL","18-JUN-2013","1987","","Y"],[506,"CDISCPILOT01","701","1146","7","PROVERA","UNCODED","PROPHYLAXIS OR NON-THERAPEUTIC USE","UNCODED",2.5,"ug","QD","ORAL","WEEK 6","30-JUN-2013","1987","","Y"],[507,"CDISCPILOT01","701","1146","7","PROVERA","UNCODED","PROPHYLAXIS OR NON-THERAPEUTIC USE","UNCODED",2.5,"ug","QD","ORAL","AE FOLLOW-UP","15-JUL-2013","1987","","Y"],[508,"CDISCPILOT01","701","1146","8","ADVIL","UNCODED","","UNCODED",2,"TABLET","TID","ORAL","WEEK 2","03-JUN-2013","21-MAY-2013","22-MAY-2013","N"],[509,"CDISCPILOT01","701","1146","9","HYDROCORTISONE, TOPICAL","UNCODED","","UNCODED",1,"VIAL","PRN","TOPICAL","WEEK 4","16-JUN-2013","12-JUN-2013","","Y"],[510,"CDISCPILOT01","701","1146","9","HYDROCORTISONE, TOPICAL","UNCODED","","UNCODED",1,"VIAL","PRN","TOPICAL","AMBUL ECG REMOVAL","18-JUN-2013","12-JUN-2013","","Y"],[511,"CDISCPILOT01","701","1146","9","HYDROCORTISONE, TOPICAL","UNCODED","","UNCODED",1,"VIAL","PRN","TOPICAL","WEEK 6","30-JUN-2013","12-JUN-2013","","Y"],[512,"CDISCPILOT01","701","1146","9","HYDROCORTISONE, TOPICAL","UNCODED","","UNCODED",1,"VIAL","PRN","TOPICAL","AE FOLLOW-UP","15-JUL-2013","12-JUN-2013","","Y"],[513,"CDISCPILOT01","701","1148","1","TUMS","UNCODED","","UNCODED",2,"TABLET","PRN","ORAL","SCREENING 1","14-AUG-2013","2011","","Y"],[514,"CDISCPILOT01","701","1148","1","TUMS","UNCODED","","UNCODED",2,"TABLET","PRN","ORAL","SCREENING 2","21-AUG-2013","2011","","Y"],[515,"CDISCPILOT01","701","1148","1","TUMS","UNCODED","","UNCODED",2,"TABLET","PRN","ORAL","BASELINE","23-AUG-2013","2011","","Y"],[516,"CDISCPILOT01","701","1148","1","TUMS","UNCODED","","UNCODED",2,"TABLET","PRN","ORAL","WEEK 2","05-SEP-2013","2011","","Y"],[517,"CDISCPILOT01","701","1148","1","TUMS","UNCODED","","UNCODED",2,"TABLET","PRN","ORAL","WEEK 4","19-SEP-2013","2011","","Y"],[518,"CDISCPILOT01","701","1148","1","TUMS","UNCODED","","UNCODED",2,"TABLET","PRN","ORAL","AMBUL ECG REMOVAL","21-SEP-2013","2011","","Y"],[519,"CDISCPILOT01","701","1148","1","TUMS","UNCODED","","UNCODED",2,"TABLET","PRN","ORAL","WEEK 6","03-OCT-2013","2011","","Y"],[520,"CDISCPILOT01","701","1148","1","TUMS","UNCODED","","UNCODED",2,"TABLET","PRN","ORAL","WEEK 8","18-OCT-2013","2011","","Y"],[521,"CDISCPILOT01","701","1148","1","TUMS","UNCODED","","UNCODED",2,"TABLET","PRN","ORAL","WEEK 12","17-NOV-2013","2011","","Y"],[522,"CDISCPILOT01","701","1148","1","TUMS","UNCODED","","UNCODED",2,"TABLET","PRN","ORAL","WEEK 16","13-DEC-2013","2011","","Y"],[523,"CDISCPILOT01","701","1148","1","TUMS","UNCODED","","UNCODED",2,"TABLET","PRN","ORAL","WEEK 20","10-JAN-2014","2011","","Y"],[524,"CDISCPILOT01","701","1148","1","TUMS","UNCODED","","UNCODED",2,"TABLET","PRN","ORAL","WEEK 24","08-FEB-2014","2011","","Y"],[525,"CDISCPILOT01","701","1148","1","TUMS","UNCODED","","UNCODED",2,"TABLET","PRN","ORAL","WEEK 26","20-FEB-2014","2011","","Y"],[526,"CDISCPILOT01","701","1148","2","TYLENOL","UNCODED","","UNCODED",1000,"mg","PRN","ORAL","SCREENING 1","14-AUG-2013","2006","","Y"],[527,"CDISCPILOT01","701","1148","2","TYLENOL","UNCODED","","UNCODED",1000,"mg","PRN","ORAL","SCREENING 2","21-AUG-2013","2006","","Y"],[528,"CDISCPILOT01","701","1148","2","TYLENOL","UNCODED","","UNCODED",1000,"mg","PRN","ORAL","BASELINE","23-AUG-2013","2006","","Y"],[529,"CDISCPILOT01","701","1148","2","TYLENOL","UNCODED","","UNCODED",1000,"mg","PRN","ORAL","WEEK 2","05-SEP-2013","2006","","Y"],[530,"CDISCPILOT01","701","1148","2","TYLENOL","UNCODED","","UNCODED",1000,"mg","PRN","ORAL","WEEK 4","19-SEP-2013","2006","","Y"],[531,"CDISCPILOT01","701","1148","2","TYLENOL","UNCODED","","UNCODED",1000,"mg","PRN","ORAL","AMBUL ECG REMOVAL","21-SEP-2013","2006","","Y"],[532,"CDISCPILOT01","701","1148","2","TYLENOL","UNCODED","","UNCODED",1000,"mg","PRN","ORAL","WEEK 6","03-OCT-2013","2006","","Y"],[533,"CDISCPILOT01","701","1148","2","TYLENOL","UNCODED","","UNCODED",1000,"mg","PRN","ORAL","WEEK 8","18-OCT-2013","2006","","Y"],[534,"CDISCPILOT01","701","1148","2","TYLENOL","UNCODED","","UNCODED",1000,"mg","PRN","ORAL","WEEK 12","17-NOV-2013","2006","","Y"],[535,"CDISCPILOT01","701","1148","2","TYLENOL","UNCODED","","UNCODED",1000,"mg","PRN","ORAL","WEEK 16","13-DEC-2013","2006","","Y"],[536,"CDISCPILOT01","701","1148","2","TYLENOL","UNCODED","","UNCODED",1000,"mg","PRN","ORAL","WEEK 20","10-JAN-2014","2006","","Y"],[537,"CDISCPILOT01","701","1148","2","TYLENOL","UNCODED","","UNCODED",1000,"mg","PRN","ORAL","WEEK 24","08-FEB-2014","2006","","Y"],[538,"CDISCPILOT01","701","1148","2","TYLENOL","UNCODED","","UNCODED",1000,"mg","PRN","ORAL","WEEK 26","20-FEB-2014","2006","","Y"],[539,"CDISCPILOT01","701","1148","3","SULFAMETHOXAZOLE","UNCODED","","UNCODED",1,"TABLET","BID","ORAL","WEEK 12","17-NOV-2013","28-OCT-2013","16-NOV-2013","N"],[540,"CDISCPILOT01","701","1148","4","HYDROCORTISONE","HYDROCORTISONE","","SYSTEMIC HORMONAL PREPARATIONS, EXCL.",1,"VIAL","PRN","TOPICAL","WEEK 16","13-DEC-2013","18-NOV-2013","","Y"],[541,"CDISCPILOT01","701","1148","4","HYDROCORTISONE","HYDROCORTISONE","","SYSTEMIC HORMONAL PREPARATIONS, EXCL.",1,"VIAL","PRN","TOPICAL","WEEK 20","10-JAN-2014","18-NOV-2013","","Y"],[542,"CDISCPILOT01","701","1148","4","HYDROCORTISONE","HYDROCORTISONE","","SYSTEMIC HORMONAL PREPARATIONS, EXCL.",1,"VIAL","PRN","TOPICAL","WEEK 24","08-FEB-2014","18-NOV-2013","","Y"],[543,"CDISCPILOT01","701","1148","4","HYDROCORTISONE","HYDROCORTISONE","","SYSTEMIC HORMONAL PREPARATIONS, EXCL.",1,"VIAL","PRN","TOPICAL","WEEK 26","20-FEB-2014","18-NOV-2013","","Y"],[544,"CDISCPILOT01","701","1148","5","HYDROCODONE W/APAP","UNCODED","","UNCODED",500,"mg","Q4H","ORAL","WEEK 20","10-JAN-2014","16-DEC-2013","17-DEC-2013","N"],[545,"CDISCPILOT01","701","1148","6","NAPROXEN","UNCODED","","UNCODED",375,"mg","BID","ORAL","WEEK 20","10-JAN-2014","16-DEC-2013","17-DEC-2013","N"],[546,"CDISCPILOT01","701","1148","7","CIMETIDINE","UNCODED","","UNCODED",400,"mg","BID","ORAL","WEEK 24","08-FEB-2014","25-JAN-2014","08-FEB-2014","N"],[547,"CDISCPILOT01","701","1148","7","CIMETIDINE","UNCODED","","UNCODED",400,"mg","BID","ORAL","WEEK 26","20-FEB-2014","25-JAN-2014","08-FEB-2014","N"],[548,"CDISCPILOT01","701","1148","8","FLUOROPLEX","UNCODED","","UNCODED",1,"VIAL","BID","TOPICAL","WEEK 26","20-FEB-2014","12-FEB-2014","","Y"],[549,"CDISCPILOT01","701","1153","1","TYLENOL","UNCODED","","UNCODED",650,"mg","PRN","ORAL","SCREENING 1","06-SEP-2013","2011","","Y"],[550,"CDISCPILOT01","701","1153","1","TYLENOL","UNCODED","","UNCODED",650,"mg","PRN","ORAL","SCREENING 2","18-SEP-2013","2011","","Y"],[551,"CDISCPILOT01","701","1153","1","TYLENOL","UNCODED","","UNCODED",650,"mg","PRN","ORAL","BASELINE","23-SEP-2013","2011","","Y"],[552,"CDISCPILOT01","701","1153","1","TYLENOL","UNCODED","","UNCODED",650,"mg","PRN","ORAL","WEEK 2","08-OCT-2013","2011","","Y"],[553,"CDISCPILOT01","701","1153","1","TYLENOL","UNCODED","","UNCODED",650,"mg","PRN","ORAL","WEEK 4","19-OCT-2013","2011","","Y"],[554,"CDISCPILOT01","701","1153","1","TYLENOL","UNCODED","","UNCODED",650,"mg","PRN","ORAL","AMBUL ECG REMOVAL","28-OCT-2013","2011","","Y"],[555,"CDISCPILOT01","701","1153","1","TYLENOL","UNCODED","","UNCODED",650,"mg","PRN","ORAL","WEEK 6","04-NOV-2013","2011","","Y"],[556,"CDISCPILOT01","701","1153","1","TYLENOL","UNCODED","","UNCODED",650,"mg","PRN","ORAL","WEEK 8","18-NOV-2013","2011","","Y"],[557,"CDISCPILOT01","701","1153","1","TYLENOL","UNCODED","","UNCODED",650,"mg","PRN","ORAL","WEEK 12","16-DEC-2013","2011","","Y"],[558,"CDISCPILOT01","701","1153","1","TYLENOL","UNCODED","","UNCODED",650,"mg","PRN","ORAL","WEEK 16","08-JAN-2014","2011","","Y"],[559,"CDISCPILOT01","701","1153","1","TYLENOL","UNCODED","","UNCODED",650,"mg","PRN","ORAL","WEEK 20","11-FEB-2014","2011","","Y"],[560,"CDISCPILOT01","701","1153","1","TYLENOL","UNCODED","","UNCODED",650,"mg","PRN","ORAL","WEEK 24","11-MAR-2014","2011","","Y"],[561,"CDISCPILOT01","701","1153","1","TYLENOL","UNCODED","","UNCODED",650,"mg","PRN","ORAL","WEEK 26","01-APR-2014","2011","","Y"],[562,"CDISCPILOT01","701","1180","1","CENTRUM","UNCODED","PROPHYLAXIS OR NON-THERAPEUTIC USE","UNCODED",1,"TABLET","QD","ORAL","SCREENING 1","28-JAN-2013","2006","","Y"],[563,"CDISCPILOT01","701","1180","1","CENTRUM","UNCODED","PROPHYLAXIS OR NON-THERAPEUTIC USE","UNCODED",1,"TABLET","QD","ORAL","SCREENING 2","10-FEB-2013","2006","","Y"],[564,"CDISCPILOT01","701","1180","1","CENTRUM","UNCODED","PROPHYLAXIS OR NON-THERAPEUTIC USE","UNCODED",1,"TABLET","QD","ORAL","BASELINE","12-FEB-2013","2006","","Y"],[565,"CDISCPILOT01","701","1180","1","CENTRUM","UNCODED","PROPHYLAXIS OR NON-THERAPEUTIC USE","UNCODED",1,"TABLET","QD","ORAL","WEEK 2","25-FEB-2013","2006","","Y"],[566,"CDISCPILOT01","701","1180","1","CENTRUM","UNCODED","PROPHYLAXIS OR NON-THERAPEUTIC USE","UNCODED",1,"TABLET","QD","ORAL","WEEK 4","11-MAR-2013","2006","","Y"],[567,"CDISCPILOT01","701","1180","1","CENTRUM","UNCODED","PROPHYLAXIS OR NON-THERAPEUTIC USE","UNCODED",1,"TABLET","QD","ORAL","AMBUL ECG REMOVAL","13-MAR-2013","2006","","Y"],[568,"CDISCPILOT01","701","1180","1","CENTRUM","UNCODED","PROPHYLAXIS OR NON-THERAPEUTIC USE","UNCODED",1,"TABLET","QD","ORAL","WEEK 6","23-MAR-2013","2006","","Y"],[569,"CDISCPILOT01","701","1180","1","CENTRUM","UNCODED","PROPHYLAXIS OR NON-THERAPEUTIC USE","UNCODED",1,"TABLET","QD","ORAL","AE FOLLOW-UP","07-APR-2013","2006","","Y"],[570,"CDISCPILOT01","701","1180","10","NEOSPORIN /USA/","UNCODED","","UNCODED",1,"VIAL","PRN","TOPICAL","AE FOLLOW-UP","07-APR-2013","24-MAR-2013","24-MAR-2013","N"],[571,"CDISCPILOT01","701","1180","2","ASPIRIN","ACETYLSALICYLIC ACID","","NERVOUS SYSTEM",2,"TABLET","QD","ORAL","WEEK 4","11-MAR-2013","03-MAR-2013","09-MAR-2013","N"],[572,"CDISCPILOT01","701","1180","3","SUDAFED","UNCODED","","UNCODED",2,"TABLET","QD","ORAL","WEEK 4","11-MAR-2013","06-MAR-2013","07-MAR-2013","N"],[573,"CDISCPILOT01","701","1180","4","ALOES","UNCODED","PROPHYLAXIS OR NON-THERAPEUTIC USE","UNCODED",1,"VIAL","QD","TOPICAL","WEEK 6","23-MAR-2013","19-MAR-2013","19-MAR-2013","N"],[574,"CDISCPILOT01","701","1180","5","WESTCORT","UNCODED","PROPHYLAXIS OR NON-THERAPEUTIC USE","UNCODED",1,"VIAL","BID","TOPICAL","WEEK 6","23-MAR-2013","19-MAR-2013","21-MAR-2013","N"],[575,"CDISCPILOT01","701","1180","6","DHEA","UNCODED","PROPHYLAXIS OR NON-THERAPEUTIC USE","UNCODED",25,"mg","QD","ORAL","AE FOLLOW-UP","07-APR-2013","27-MAR-2013","30-MAR-2013","N"],[576,"CDISCPILOT01","701","1180","7","HISMANAL","UNCODED","","UNCODED",10,"mg","QD","ORAL","AE FOLLOW-UP","07-APR-2013","25-MAR-2013","","Y"],[577,"CDISCPILOT01","701","1180","8","MEDROL DOSEPAK","UNCODED","","UNCODED",4,"mg","PRN","ORAL","AE FOLLOW-UP","07-APR-2013","30-MAR-2013","","Y"],[578,"CDISCPILOT01","701","1180","9","MELATONIN","UNCODED","","UNCODED",2,"mg","QD","ORAL","AE FOLLOW-UP","07-APR-2013","27-MAR-2013","30-MAR-2013","N"],[579,"CDISCPILOT01","701","1181","1","CALCIUM MAGNESIUM","UNCODED","PROPHYLAXIS OR NON-THERAPEUTIC USE","UNCODED",1,"TABLET","QD","ORAL","SCREENING 1","26-NOV-2013","1985","","Y"],[580,"CDISCPILOT01","701","1181","1","CALCIUM MAGNESIUM","UNCODED","PROPHYLAXIS OR NON-THERAPEUTIC USE","UNCODED",1,"TABLET","QD","ORAL","SCREENING 2","03-DEC-2013","1985","","Y"],[581,"CDISCPILOT01","701","1181","1","CALCIUM MAGNESIUM","UNCODED","PROPHYLAXIS OR NON-THERAPEUTIC USE","UNCODED",1,"TABLET","QD","ORAL","BASELINE","05-DEC-2013","1985","","Y"],[582,"CDISCPILOT01","701","1181","1","CALCIUM MAGNESIUM","UNCODED","PROPHYLAXIS OR NON-THERAPEUTIC USE","UNCODED",1,"TABLET","QD","ORAL","WEEK 2","12-DEC-2013","1985","","Y"],[583,"CDISCPILOT01","701","1181","1","CALCIUM MAGNESIUM","UNCODED","PROPHYLAXIS OR NON-THERAPEUTIC USE","UNCODED",1,"TABLET","QD","ORAL","AE FOLLOW-UP","20-DEC-2013","1985","","Y"],[584,"CDISCPILOT01","701","1181","1","CALCIUM MAGNESIUM","UNCODED","PROPHYLAXIS OR NON-THERAPEUTIC USE","UNCODED",1,"TABLET","QD","ORAL","RETRIEVAL","23-MAY-2014","1985","","Y"],[585,"CDISCPILOT01","701","1181","2","POTASSIUM","UNCODED","PROPHYLAXIS OR NON-THERAPEUTIC USE","UNCODED",1,"TABLET","QD","ORAL","SCREENING 1","26-NOV-2013","1985","","Y"],[586,"CDISCPILOT01","701","1181","2","POTASSIUM","UNCODED","PROPHYLAXIS OR NON-THERAPEUTIC USE","UNCODED",1,"TABLET","QD","ORAL","SCREENING 2","03-DEC-2013","1985","","Y"],[587,"CDISCPILOT01","701","1181","2","POTASSIUM","UNCODED","PROPHYLAXIS OR NON-THERAPEUTIC USE","UNCODED",1,"TABLET","QD","ORAL","BASELINE","05-DEC-2013","1985","","Y"],[588,"CDISCPILOT01","701","1181","2","POTASSIUM","UNCODED","PROPHYLAXIS OR NON-THERAPEUTIC USE","UNCODED",1,"TABLET","QD","ORAL","WEEK 2","12-DEC-2013","1985","","Y"],[589,"CDISCPILOT01","701","1181","2","POTASSIUM","UNCODED","PROPHYLAXIS OR NON-THERAPEUTIC USE","UNCODED",1,"TABLET","QD","ORAL","AE FOLLOW-UP","20-DEC-2013","1985","","Y"],[590,"CDISCPILOT01","701","1181","2","POTASSIUM","UNCODED","PROPHYLAXIS OR NON-THERAPEUTIC USE","UNCODED",1,"TABLET","QD","ORAL","RETRIEVAL","23-MAY-2014","1985","","Y"],[591,"CDISCPILOT01","701","1181","3","TYLENOL","UNCODED","","UNCODED",500,"mg","PRN","ORAL","SCREENING 1","26-NOV-2013","2005","","Y"],[592,"CDISCPILOT01","701","1181","3","TYLENOL","UNCODED","","UNCODED",500,"mg","PRN","ORAL","SCREENING 2","03-DEC-2013","2005","","Y"],[593,"CDISCPILOT01","701","1181","3","TYLENOL","UNCODED","","UNCODED",500,"mg","PRN","ORAL","BASELINE","05-DEC-2013","2005","","Y"],[594,"CDISCPILOT01","701","1181","3","TYLENOL","UNCODED","","UNCODED",500,"mg","PRN","ORAL","WEEK 2","12-DEC-2013","2005","","Y"],[595,"CDISCPILOT01","701","1181","3","TYLENOL","UNCODED","","UNCODED",500,"mg","PRN","ORAL","AE FOLLOW-UP","20-DEC-2013","2005","","Y"],[596,"CDISCPILOT01","701","1181","3","TYLENOL","UNCODED","","UNCODED",500,"mg","PRN","ORAL","RETRIEVAL","23-MAY-2014","2005","","Y"],[597,"CDISCPILOT01","701","1181","4","VITAMIN C","UNCODED","PROPHYLAXIS OR NON-THERAPEUTIC USE","UNCODED",1,"TABLET","QD","ORAL","SCREENING 1","26-NOV-2013","1985","","Y"],[598,"CDISCPILOT01","701","1181","4","VITAMIN C","UNCODED","PROPHYLAXIS OR NON-THERAPEUTIC USE","UNCODED",1,"TABLET","QD","ORAL","SCREENING 2","03-DEC-2013","1985","","Y"],[599,"CDISCPILOT01","701","1181","4","VITAMIN C","UNCODED","PROPHYLAXIS OR NON-THERAPEUTIC USE","UNCODED",1,"TABLET","QD","ORAL","BASELINE","05-DEC-2013","1985","","Y"],[600,"CDISCPILOT01","701","1181","4","VITAMIN C","UNCODED","PROPHYLAXIS OR NON-THERAPEUTIC USE","UNCODED",1,"TABLET","QD","ORAL","WEEK 2","12-DEC-2013","1985","","Y"],[601,"CDISCPILOT01","701","1181","4","VITAMIN C","UNCODED","PROPHYLAXIS OR NON-THERAPEUTIC USE","UNCODED",1,"TABLET","QD","ORAL","AE FOLLOW-UP","20-DEC-2013","1985","","Y"],[602,"CDISCPILOT01","701","1181","4","VITAMIN C","UNCODED","PROPHYLAXIS OR NON-THERAPEUTIC USE","UNCODED",1,"TABLET","QD","ORAL","RETRIEVAL","23-MAY-2014","1985","","Y"],[603,"CDISCPILOT01","701","1181","5","VITAMIN E","UNCODED","PROPHYLAXIS OR NON-THERAPEUTIC USE","UNCODED",1,"TABLET","QD","ORAL","SCREENING 1","26-NOV-2013","04-JUN-2012","","Y"],[604,"CDISCPILOT01","701","1181","5","VITAMIN E","UNCODED","PROPHYLAXIS OR NON-THERAPEUTIC USE","UNCODED",1,"TABLET","QD","ORAL","SCREENING 2","03-DEC-2013","04-JUN-2012","","Y"],[605,"CDISCPILOT01","701","1181","5","VITAMIN E","UNCODED","PROPHYLAXIS OR NON-THERAPEUTIC USE","UNCODED",1,"TABLET","QD","ORAL","BASELINE","05-DEC-2013","04-JUN-2012","","Y"],[606,"CDISCPILOT01","701","1181","5","VITAMIN E","UNCODED","PROPHYLAXIS OR NON-THERAPEUTIC USE","UNCODED",1,"TABLET","QD","ORAL","WEEK 2","12-DEC-2013","04-JUN-2012","","Y"],[607,"CDISCPILOT01","701","1181","5","VITAMIN E","UNCODED","PROPHYLAXIS OR NON-THERAPEUTIC USE","UNCODED",1,"TABLET","QD","ORAL","AE FOLLOW-UP","20-DEC-2013","04-JUN-2012","","Y"],[608,"CDISCPILOT01","701","1181","5","VITAMIN E","UNCODED","PROPHYLAXIS OR NON-THERAPEUTIC USE","UNCODED",1,"TABLET","QD","ORAL","RETRIEVAL","23-MAY-2014","04-JUN-2012","","Y"],[609,"CDISCPILOT01","701","1181","6","MOTRIN","UNCODED","","UNCODED",200,"mg","ONCE","ORAL","WEEK 2","12-DEC-2013","09-DEC-2013","09-DEC-2013","N"],[610,"CDISCPILOT01","701","1188","1","ASPIRIN","ACETYLSALICYLIC ACID","PROPHYLAXIS OR NON-THERAPEUTIC USE","NERVOUS SYSTEM",1,"TABLET","QD","ORAL","SCREENING 1","03-FEB-2013","2006","","Y"],[611,"CDISCPILOT01","701","1188","1","ASPIRIN","ACETYLSALICYLIC ACID","PROPHYLAXIS OR NON-THERAPEUTIC USE","NERVOUS SYSTEM",1,"TABLET","QD","ORAL","SCREENING 2","10-FEB-2013","2006","","Y"],[612,"CDISCPILOT01","701","1188","1","ASPIRIN","ACETYLSALICYLIC ACID","PROPHYLAXIS OR NON-THERAPEUTIC USE","NERVOUS SYSTEM",1,"TABLET","QD","ORAL","BASELINE","15-FEB-2013","2006","","Y"],[613,"CDISCPILOT01","701","1188","1","ASPIRIN","ACETYLSALICYLIC ACID","PROPHYLAXIS OR NON-THERAPEUTIC USE","NERVOUS SYSTEM",1,"TABLET","QD","ORAL","WEEK 2","02-MAR-2013","2006","","Y"],[614,"CDISCPILOT01","701","1188","1","ASPIRIN","ACETYLSALICYLIC ACID","PROPHYLAXIS OR NON-THERAPEUTIC USE","NERVOUS SYSTEM",1,"TABLET","QD","ORAL","WEEK 4","16-MAR-2013","2006","","Y"],[615,"CDISCPILOT01","701","1188","1","ASPIRIN","ACETYLSALICYLIC ACID","PROPHYLAXIS OR NON-THERAPEUTIC USE","NERVOUS SYSTEM",1,"TABLET","QD","ORAL","AMBUL ECG REMOVAL","18-MAR-2013","2006","","Y"],[616,"CDISCPILOT01","701","1188","1","ASPIRIN","ACETYLSALICYLIC ACID","PROPHYLAXIS OR NON-THERAPEUTIC USE","NERVOUS SYSTEM",1,"TABLET","QD","ORAL","WEEK 6","25-MAR-2013","2006","","Y"],[617,"CDISCPILOT01","701","1188","1","ASPIRIN","ACETYLSALICYLIC ACID","PROPHYLAXIS OR NON-THERAPEUTIC USE","NERVOUS SYSTEM",1,"TABLET","QD","ORAL","AE FOLLOW-UP","01-JUN-2013","2006","","Y"],[618,"CDISCPILOT01","701","1188","1","ASPIRIN","ACETYLSALICYLIC ACID","PROPHYLAXIS OR NON-THERAPEUTIC USE","NERVOUS SYSTEM",1,"TABLET","QD","ORAL","RETRIEVAL","04-AUG-2013","2006","","Y"],[619,"CDISCPILOT01","701","1188","2","MULTIVITAMINS","UNCODED","PROPHYLAXIS OR NON-THERAPEUTIC USE","UNCODED",1,"TABLET","QD","ORAL","SCREENING 1","03-FEB-2013","2002","","Y"],[620,"CDISCPILOT01","701","1188","2","MULTIVITAMINS","UNCODED","PROPHYLAXIS OR NON-THERAPEUTIC USE","UNCODED",1,"TABLET","QD","ORAL","SCREENING 2","10-FEB-2013","2002","","Y"],[621,"CDISCPILOT01","701","1188","2","MULTIVITAMINS","UNCODED","PROPHYLAXIS OR NON-THERAPEUTIC USE","UNCODED",1,"TABLET","QD","ORAL","BASELINE","15-FEB-2013","2002","","Y"],[622,"CDISCPILOT01","701","1188","2","MULTIVITAMINS","UNCODED","PROPHYLAXIS OR NON-THERAPEUTIC USE","UNCODED",1,"TABLET","QD","ORAL","WEEK 2","02-MAR-2013","2002","","Y"],[623,"CDISCPILOT01","701","1188","2","MULTIVITAMINS","UNCODED","PROPHYLAXIS OR NON-THERAPEUTIC USE","UNCODED",1,"TABLET","QD","ORAL","WEEK 4","16-MAR-2013","2002","","Y"],[624,"CDISCPILOT01","701","1188","2","MULTIVITAMINS","UNCODED","PROPHYLAXIS OR NON-THERAPEUTIC USE","UNCODED",1,"TABLET","QD","ORAL","AMBUL ECG REMOVAL","18-MAR-2013","2002","","Y"],[625,"CDISCPILOT01","701","1188","2","MULTIVITAMINS","UNCODED","PROPHYLAXIS OR NON-THERAPEUTIC USE","UNCODED",1,"TABLET","QD","ORAL","WEEK 6","25-MAR-2013","2002","","Y"],[626,"CDISCPILOT01","701","1188","2","MULTIVITAMINS","UNCODED","PROPHYLAXIS OR NON-THERAPEUTIC USE","UNCODED",1,"TABLET","QD","ORAL","AE FOLLOW-UP","01-JUN-2013","2002","","Y"],[627,"CDISCPILOT01","701","1188","2","MULTIVITAMINS","UNCODED","PROPHYLAXIS OR NON-THERAPEUTIC USE","UNCODED",1,"TABLET","QD","ORAL","RETRIEVAL","04-AUG-2013","2002","","Y"],[628,"CDISCPILOT01","701","1192","1","EXCEDRIN","UNCODED","","UNCODED",2,"TABLET","PRN","ORAL","SCREENING 1","08-JUL-2012","1999","","Y"],[629,"CDISCPILOT01","701","1192","1","EXCEDRIN","UNCODED","","UNCODED",2,"TABLET","PRN","ORAL","SCREENING 2","20-JUL-2012","1999","","Y"],[630,"CDISCPILOT01","701","1192","1","EXCEDRIN","UNCODED","","UNCODED",2,"TABLET","PRN","ORAL","BASELINE","22-JUL-2012","1999","","Y"],[631,"CDISCPILOT01","701","1192","1","EXCEDRIN","UNCODED","","UNCODED",2,"TABLET","PRN","ORAL","WEEK 2","07-AUG-2012","1999","","Y"],[632,"CDISCPILOT01","701","1192","1","EXCEDRIN","UNCODED","","UNCODED",2,"TABLET","PRN","ORAL","WEEK 4","21-AUG-2012","1999","","Y"],[633,"CDISCPILOT01","701","1192","1","EXCEDRIN","UNCODED","","UNCODED",2,"TABLET","PRN","ORAL","AMBUL ECG REMOVAL","23-AUG-2012","1999","","Y"],[634,"CDISCPILOT01","701","1192","1","EXCEDRIN","UNCODED","","UNCODED",2,"TABLET","PRN","ORAL","WEEK 6","04-SEP-2012","1999","","Y"],[635,"CDISCPILOT01","701","1192","1","EXCEDRIN","UNCODED","","UNCODED",2,"TABLET","PRN","ORAL","WEEK 8","23-SEP-2012","1999","","Y"],[636,"CDISCPILOT01","701","1192","1","EXCEDRIN","UNCODED","","UNCODED",2,"TABLET","PRN","ORAL","WEEK 12","14-OCT-2012","1999","","Y"],[637,"CDISCPILOT01","701","1192","1","EXCEDRIN","UNCODED","","UNCODED",2,"TABLET","PRN","ORAL","WEEK 16","15-NOV-2012","1999","","Y"],[638,"CDISCPILOT01","701","1192","1","EXCEDRIN","UNCODED","","UNCODED",2,"TABLET","PRN","ORAL","WEEK 20","13-DEC-2012","1999","","Y"],[639,"CDISCPILOT01","701","1192","1","EXCEDRIN","UNCODED","","UNCODED",2,"TABLET","PRN","ORAL","WEEK 24","11-JAN-2013","1999","","Y"],[640,"CDISCPILOT01","701","1192","1","EXCEDRIN","UNCODED","","UNCODED",2,"TABLET","PRN","ORAL","WEEK 26","20-JAN-2013","1999","","Y"],[641,"CDISCPILOT01","701","1192","2","MULTIVITAMINS","UNCODED","PROPHYLAXIS OR NON-THERAPEUTIC USE","UNCODED",2,"TABLET","TID","ORAL","SCREENING 1","08-JUL-2012","19-MAY-2011","","Y"],[642,"CDISCPILOT01","701","1192","2","MULTIVITAMINS","UNCODED","PROPHYLAXIS OR NON-THERAPEUTIC USE","UNCODED",2,"TABLET","TID","ORAL","SCREENING 2","20-JUL-2012","19-MAY-2011","","Y"],[643,"CDISCPILOT01","701","1192","2","MULTIVITAMINS","UNCODED","PROPHYLAXIS OR NON-THERAPEUTIC USE","UNCODED",2,"TABLET","TID","ORAL","BASELINE","22-JUL-2012","19-MAY-2011","","Y"],[644,"CDISCPILOT01","701","1192","2","MULTIVITAMINS","UNCODED","PROPHYLAXIS OR NON-THERAPEUTIC USE","UNCODED",2,"TABLET","TID","ORAL","WEEK 2","07-AUG-2012","19-MAY-2011","","Y"],[645,"CDISCPILOT01","701","1192","2","MULTIVITAMINS","UNCODED","PROPHYLAXIS OR NON-THERAPEUTIC USE","UNCODED",2,"TABLET","TID","ORAL","WEEK 4","21-AUG-2012","19-MAY-2011","","Y"],[646,"CDISCPILOT01","701","1192","2","MULTIVITAMINS","UNCODED","PROPHYLAXIS OR NON-THERAPEUTIC USE","UNCODED",2,"TABLET","TID","ORAL","AMBUL ECG REMOVAL","23-AUG-2012","19-MAY-2011","","Y"],[647,"CDISCPILOT01","701","1192","2","MULTIVITAMINS","UNCODED","PROPHYLAXIS OR NON-THERAPEUTIC USE","UNCODED",2,"TABLET","TID","ORAL","WEEK 6","04-SEP-2012","19-MAY-2011","","Y"],[648,"CDISCPILOT01","701","1192","2","MULTIVITAMINS","UNCODED","PROPHYLAXIS OR NON-THERAPEUTIC USE","UNCODED",2,"TABLET","TID","ORAL","WEEK 8","23-SEP-2012","19-MAY-2011","","Y"],[649,"CDISCPILOT01","701","1192","2","MULTIVITAMINS","UNCODED","PROPHYLAXIS OR NON-THERAPEUTIC USE","UNCODED",2,"TABLET","TID","ORAL","WEEK 12","14-OCT-2012","19-MAY-2011","","Y"],[650,"CDISCPILOT01","701","1192","2","MULTIVITAMINS","UNCODED","PROPHYLAXIS OR NON-THERAPEUTIC USE","UNCODED",2,"TABLET","TID","ORAL","WEEK 16","15-NOV-2012","19-MAY-2011","","Y"],[651,"CDISCPILOT01","701","1192","2","MULTIVITAMINS","UNCODED","PROPHYLAXIS OR NON-THERAPEUTIC USE","UNCODED",2,"TABLET","TID","ORAL","WEEK 20","13-DEC-2012","19-MAY-2011","","Y"],[652,"CDISCPILOT01","701","1192","2","MULTIVITAMINS","UNCODED","PROPHYLAXIS OR NON-THERAPEUTIC USE","UNCODED",2,"TABLET","TID","ORAL","WEEK 24","11-JAN-2013","19-MAY-2011","","Y"],[653,"CDISCPILOT01","701","1192","2","MULTIVITAMINS","UNCODED","PROPHYLAXIS OR NON-THERAPEUTIC USE","UNCODED",2,"TABLET","TID","ORAL","WEEK 26","20-JAN-2013","19-MAY-2011","","Y"],[654,"CDISCPILOT01","701","1192","3","ROCEPHIN","UNCODED","","UNCODED",null,"","","","WEEK 8","23-SEP-2012","07-SEP-2012","08-SEP-2012","N"],[655,"CDISCPILOT01","701","1192","4","BIAXIN","UNCODED","","UNCODED",500,"mg","BID","ORAL","WEEK 8","23-SEP-2012","07-SEP-2012","23-SEP-2012","N"],[656,"CDISCPILOT01","701","1192","4","BIAXIN","UNCODED","","UNCODED",500,"mg","BID","ORAL","WEEK 12","14-OCT-2012","07-SEP-2012","23-SEP-2012","N"],[657,"CDISCPILOT01","701","1192","5","PROVENTIL","SALBUTAMOL SULFATE","","RESPIRATORY SYSTEM",4,"mg","BID","ORAL","WEEK 12","14-OCT-2012","24-SEP-2012","06-OCT-2012","N"],[658,"CDISCPILOT01","701","1192","6","ROBITUSSIN-DM","UNCODED","","UNCODED",1,"tsp","PRN","ORAL","WEEK 8","23-SEP-2012","08-SEP-2012","06-OCT-2012","N"],[659,"CDISCPILOT01","701","1192","6","ROBITUSSIN-DM","UNCODED","","UNCODED",1,"tsp","PRN","ORAL","WEEK 12","14-OCT-2012","08-SEP-2012","06-OCT-2012","N"],[660,"CDISCPILOT01","701","1192","7","HYDROCORTISONE","HYDROCORTISONE","","SYSTEMIC HORMONAL PREPARATIONS, EXCL.",1,"VIAL","PRN","TOPICAL","WEEK 20","13-DEC-2012","08-DEC-2012","","Y"],[661,"CDISCPILOT01","701","1192","7","HYDROCORTISONE","HYDROCORTISONE","","SYSTEMIC HORMONAL PREPARATIONS, EXCL.",1,"VIAL","PRN","TOPICAL","WEEK 24","11-JAN-2013","08-DEC-2012","","Y"],[662,"CDISCPILOT01","701","1192","7","HYDROCORTISONE","HYDROCORTISONE","","SYSTEMIC HORMONAL PREPARATIONS, EXCL.",1,"VIAL","PRN","TOPICAL","WEEK 26","20-JAN-2013","08-DEC-2012","","Y"],[663,"CDISCPILOT01","701","1192","8","NEOSPORIN /USA/","UNCODED","","UNCODED",1,"VIAL","PRN","TOPICAL","WEEK 20","13-DEC-2012","09-DEC-2012","","Y"],[664,"CDISCPILOT01","701","1192","8","NEOSPORIN /USA/","UNCODED","","UNCODED",1,"VIAL","PRN","TOPICAL","WEEK 24","11-JAN-2013","09-DEC-2012","","Y"],[665,"CDISCPILOT01","701","1192","8","NEOSPORIN /USA/","UNCODED","","UNCODED",1,"VIAL","PRN","TOPICAL","WEEK 26","20-JAN-2013","09-DEC-2012","","Y"],[666,"CDISCPILOT01","701","1203","1","TIMOPTIC","UNCODED","","UNCODED",1,"gtt","BID","OPHTHALMIC","SCREENING 1","25-JAN-2013","1986","","Y"],[667,"CDISCPILOT01","701","1203","1","TIMOPTIC","UNCODED","","UNCODED",1,"gtt","BID","OPHTHALMIC","SCREENING 2","01-FEB-2013","1986","","Y"],[668,"CDISCPILOT01","701","1203","1","TIMOPTIC","UNCODED","","UNCODED",1,"gtt","BID","OPHTHALMIC","BASELINE","02-FEB-2013","1986","","Y"],[669,"CDISCPILOT01","701","1203","1","TIMOPTIC","UNCODED","","UNCODED",1,"gtt","BID","OPHTHALMIC","WEEK 2","23-FEB-2013","1986","","Y"],[670,"CDISCPILOT01","701","1203","1","TIMOPTIC","UNCODED","","UNCODED",1,"gtt","BID","OPHTHALMIC","WEEK 4","02-MAR-2013","1986","","Y"],[671,"CDISCPILOT01","701","1203","1","TIMOPTIC","UNCODED","","UNCODED",1,"gtt","BID","OPHTHALMIC","AMBUL ECG REMOVAL","04-MAR-2013","1986","","Y"],[672,"CDISCPILOT01","701","1203","1","TIMOPTIC","UNCODED","","UNCODED",1,"gtt","BID","OPHTHALMIC","WEEK 6","16-MAR-2013","1986","","Y"],[673,"CDISCPILOT01","701","1203","1","TIMOPTIC","UNCODED","","UNCODED",1,"gtt","BID","OPHTHALMIC","WEEK 8","30-MAR-2013","1986","","Y"],[674,"CDISCPILOT01","701","1203","1","TIMOPTIC","UNCODED","","UNCODED",1,"gtt","BID","OPHTHALMIC","WEEK 12","09-MAY-2013","1986","","Y"],[675,"CDISCPILOT01","701","1203","1","TIMOPTIC","UNCODED","","UNCODED",1,"gtt","BID","OPHTHALMIC","WEEK 16","25-MAY-2013","1986","","Y"],[676,"CDISCPILOT01","701","1203","1","TIMOPTIC","UNCODED","","UNCODED",1,"gtt","BID","OPHTHALMIC","WEEK 20","22-JUN-2013","1986","","Y"],[677,"CDISCPILOT01","701","1203","1","TIMOPTIC","UNCODED","","UNCODED",1,"gtt","BID","OPHTHALMIC","WEEK 24","22-JUL-2013","1986","","Y"],[678,"CDISCPILOT01","701","1203","1","TIMOPTIC","UNCODED","","UNCODED",1,"gtt","BID","OPHTHALMIC","WEEK 26","03-AUG-2013","1986","","Y"],[679,"CDISCPILOT01","701","1203","2","TRUSOPT","UNCODED","","UNCODED",1,"gtt","BID","OPHTHALMIC","SCREENING 1","25-JAN-2013","1986","","Y"],[680,"CDISCPILOT01","701","1203","2","TRUSOPT","UNCODED","","UNCODED",1,"gtt","BID","OPHTHALMIC","SCREENING 2","01-FEB-2013","1986","","Y"],[681,"CDISCPILOT01","701","1203","2","TRUSOPT","UNCODED","","UNCODED",1,"gtt","BID","OPHTHALMIC","BASELINE","02-FEB-2013","1986","","Y"],[682,"CDISCPILOT01","701","1203","2","TRUSOPT","UNCODED","","UNCODED",1,"gtt","BID","OPHTHALMIC","WEEK 2","23-FEB-2013","1986","","Y"],[683,"CDISCPILOT01","701","1203","2","TRUSOPT","UNCODED","","UNCODED",1,"gtt","BID","OPHTHALMIC","WEEK 4","02-MAR-2013","1986","","Y"],[684,"CDISCPILOT01","701","1203","2","TRUSOPT","UNCODED","","UNCODED",1,"gtt","BID","OPHTHALMIC","AMBUL ECG REMOVAL","04-MAR-2013","1986","","Y"],[685,"CDISCPILOT01","701","1203","2","TRUSOPT","UNCODED","","UNCODED",1,"gtt","BID","OPHTHALMIC","WEEK 6","16-MAR-2013","1986","","Y"],[686,"CDISCPILOT01","701","1203","2","TRUSOPT","UNCODED","","UNCODED",1,"gtt","BID","OPHTHALMIC","WEEK 8","30-MAR-2013","1986","","Y"],[687,"CDISCPILOT01","701","1203","2","TRUSOPT","UNCODED","","UNCODED",1,"gtt","BID","OPHTHALMIC","WEEK 12","09-MAY-2013","1986","","Y"],[688,"CDISCPILOT01","701","1203","2","TRUSOPT","UNCODED","","UNCODED",1,"gtt","BID","OPHTHALMIC","WEEK 16","25-MAY-2013","1986","","Y"],[689,"CDISCPILOT01","701","1203","2","TRUSOPT","UNCODED","","UNCODED",1,"gtt","BID","OPHTHALMIC","WEEK 20","22-JUN-2013","1986","","Y"],[690,"CDISCPILOT01","701","1203","2","TRUSOPT","UNCODED","","UNCODED",1,"gtt","BID","OPHTHALMIC","WEEK 24","22-JUL-2013","1986","","Y"],[691,"CDISCPILOT01","701","1203","2","TRUSOPT","UNCODED","","UNCODED",1,"gtt","BID","OPHTHALMIC","WEEK 26","03-AUG-2013","1986","","Y"],[692,"CDISCPILOT01","701","1203","3","ALPHAGAN","UNCODED","","UNCODED",1,"gtt","BID","OPHTHALMIC","SCREENING 2","01-FEB-2013","31-JAN-2013","","Y"],[693,"CDISCPILOT01","701","1203","3","ALPHAGAN","UNCODED","","UNCODED",1,"gtt","BID","OPHTHALMIC","BASELINE","02-FEB-2013","31-JAN-2013","","Y"],[694,"CDISCPILOT01","701","1203","3","ALPHAGAN","UNCODED","","UNCODED",1,"gtt","BID","OPHTHALMIC","WEEK 2","23-FEB-2013","31-JAN-2013","","Y"],[695,"CDISCPILOT01","701","1203","3","ALPHAGAN","UNCODED","","UNCODED",1,"gtt","BID","OPHTHALMIC","WEEK 4","02-MAR-2013","31-JAN-2013","","Y"],[696,"CDISCPILOT01","701","1203","3","ALPHAGAN","UNCODED","","UNCODED",1,"gtt","BID","OPHTHALMIC","AMBUL ECG REMOVAL","04-MAR-2013","31-JAN-2013","","Y"],[697,"CDISCPILOT01","701","1203","3","ALPHAGAN","UNCODED","","UNCODED",1,"gtt","BID","OPHTHALMIC","WEEK 6","16-MAR-2013","31-JAN-2013","","Y"],[698,"CDISCPILOT01","701","1203","3","ALPHAGAN","UNCODED","","UNCODED",1,"gtt","BID","OPHTHALMIC","WEEK 8","30-MAR-2013","31-JAN-2013","","Y"],[699,"CDISCPILOT01","701","1203","3","ALPHAGAN","UNCODED","","UNCODED",1,"gtt","BID","OPHTHALMIC","WEEK 12","09-MAY-2013","31-JAN-2013","","Y"],[700,"CDISCPILOT01","701","1203","3","ALPHAGAN","UNCODED","","UNCODED",1,"gtt","BID","OPHTHALMIC","WEEK 16","25-MAY-2013","31-JAN-2013","","Y"],[701,"CDISCPILOT01","701","1203","3","ALPHAGAN","UNCODED","","UNCODED",1,"gtt","BID","OPHTHALMIC","WEEK 20","22-JUN-2013","31-JAN-2013","","Y"],[702,"CDISCPILOT01","701","1203","3","ALPHAGAN","UNCODED","","UNCODED",1,"gtt","BID","OPHTHALMIC","WEEK 24","22-JUL-2013","31-JAN-2013","","Y"],[703,"CDISCPILOT01","701","1203","3","ALPHAGAN","UNCODED","","UNCODED",1,"gtt","BID","OPHTHALMIC","WEEK 26","03-AUG-2013","31-JAN-2013","","Y"],[704,"CDISCPILOT01","701","1203","4","PILOSTAT","UNCODED","","UNCODED",1,"gtt","BID","OPHTHALMIC","SCREENING 2","01-FEB-2013","31-JAN-2013","","Y"],[705,"CDISCPILOT01","701","1203","4","PILOSTAT","UNCODED","","UNCODED",1,"gtt","BID","OPHTHALMIC","BASELINE","02-FEB-2013","31-JAN-2013","","Y"],[706,"CDISCPILOT01","701","1203","4","PILOSTAT","UNCODED","","UNCODED",1,"gtt","BID","OPHTHALMIC","WEEK 2","23-FEB-2013","31-JAN-2013","","Y"],[707,"CDISCPILOT01","701","1203","4","PILOSTAT","UNCODED","","UNCODED",1,"gtt","BID","OPHTHALMIC","WEEK 4","02-MAR-2013","31-JAN-2013","","Y"],[708,"CDISCPILOT01","701","1203","4","PILOSTAT","UNCODED","","UNCODED",1,"gtt","BID","OPHTHALMIC","AMBUL ECG REMOVAL","04-MAR-2013","31-JAN-2013","","Y"],[709,"CDISCPILOT01","701","1203","4","PILOSTAT","UNCODED","","UNCODED",1,"gtt","BID","OPHTHALMIC","WEEK 6","16-MAR-2013","31-JAN-2013","","Y"],[710,"CDISCPILOT01","701","1203","4","PILOSTAT","UNCODED","","UNCODED",1,"gtt","BID","OPHTHALMIC","WEEK 8","30-MAR-2013","31-JAN-2013","","Y"],[711,"CDISCPILOT01","701","1203","4","PILOSTAT","UNCODED","","UNCODED",1,"gtt","BID","OPHTHALMIC","WEEK 12","09-MAY-2013","31-JAN-2013","","Y"],[712,"CDISCPILOT01","701","1203","4","PILOSTAT","UNCODED","","UNCODED",1,"gtt","BID","OPHTHALMIC","WEEK 16","25-MAY-2013","31-JAN-2013","","Y"],[713,"CDISCPILOT01","701","1203","4","PILOSTAT","UNCODED","","UNCODED",1,"gtt","BID","OPHTHALMIC","WEEK 20","22-JUN-2013","31-JAN-2013","","Y"],[714,"CDISCPILOT01","701","1203","4","PILOSTAT","UNCODED","","UNCODED",1,"gtt","BID","OPHTHALMIC","WEEK 24","22-JUL-2013","31-JAN-2013","","Y"],[715,"CDISCPILOT01","701","1203","4","PILOSTAT","UNCODED","","UNCODED",1,"gtt","BID","OPHTHALMIC","WEEK 26","03-AUG-2013","31-JAN-2013","","Y"],[716,"CDISCPILOT01","701","1203","5","MOTRIN","UNCODED","","UNCODED",1,"TABLET","PRN","ORAL","WEEK 24","22-JUL-2013","04-JUL-2013","","Y"],[717,"CDISCPILOT01","701","1203","5","MOTRIN","UNCODED","","UNCODED",1,"TABLET","PRN","ORAL","WEEK 26","03-AUG-2013","04-JUL-2013","","Y"],[718,"CDISCPILOT01","701","1203","6","TYLENOL","UNCODED","","UNCODED",1,"TABLET","PRN","ORAL","WEEK 24","22-JUL-2013","04-JUL-2013","","Y"],[719,"CDISCPILOT01","701","1203","6","TYLENOL","UNCODED","","UNCODED",1,"TABLET","PRN","ORAL","WEEK 26","03-AUG-2013","04-JUL-2013","","Y"],[720,"CDISCPILOT01","701","1211","1","DEMEROL","UNCODED","","UNCODED",50,"mg","ONCE","INTRAVENOUS","WEEK 2","28-NOV-2012","21-NOV-2012","21-NOV-2012","N"],[721,"CDISCPILOT01","701","1211","2","TYLENOL W/CODEINE NO. 3","UNCODED","","UNCODED",2,"TABLET","ONCE","ORAL","WEEK 2","28-NOV-2012","21-NOV-2012","21-NOV-2012","N"],[722,"CDISCPILOT01","701","1211","3","HYDROCORTISONE","HYDROCORTISONE","","SYSTEMIC HORMONAL PREPARATIONS, EXCL.",1,"VIAL","PRN","TOPICAL","WEEK 4","11-DEC-2012","08-DEC-2012","","Y"],[723,"CDISCPILOT01","701","1211","3","HYDROCORTISONE","HYDROCORTISONE","","SYSTEMIC HORMONAL PREPARATIONS, EXCL.",1,"VIAL","PRN","TOPICAL","AMBUL ECG REMOVAL","13-DEC-2012","08-DEC-2012","","Y"],[724,"CDISCPILOT01","701","1211","3","HYDROCORTISONE","HYDROCORTISONE","","SYSTEMIC HORMONAL PREPARATIONS, EXCL.",1,"VIAL","PRN","TOPICAL","WEEK 6","25-DEC-2012","08-DEC-2012","","Y"],[725,"CDISCPILOT01","701","1211","3","HYDROCORTISONE","HYDROCORTISONE","","SYSTEMIC HORMONAL PREPARATIONS, EXCL.",1,"VIAL","PRN","TOPICAL","WEEK 8","08-JAN-2013","08-DEC-2012","","Y"],[726,"CDISCPILOT01","701","1211","3","HYDROCORTISONE","HYDROCORTISONE","","SYSTEMIC HORMONAL PREPARATIONS, EXCL.",1,"VIAL","PRN","TOPICAL","WEEK 12","14-JAN-2013","08-DEC-2012","","Y"],[727,"CDISCPILOT01","701","1211","4","LOMOTIL","UNCODED","","UNCODED",2.5,"mg","QD","ORAL","WEEK 8","08-JAN-2013","04-JAN-2013","04-JAN-2013","N"],[728,"CDISCPILOT01","701","1211","5","MYLANTA","UNCODED","","UNCODED",1,"tsp","BID","ORAL","WEEK 8","08-JAN-2013","05-JAN-2013","","Y"],[729,"CDISCPILOT01","701","1211","5","MYLANTA","UNCODED","","UNCODED",1,"tsp","BID","ORAL","WEEK 12","14-JAN-2013","05-JAN-2013","","Y"],[730,"CDISCPILOT01","701","1234","1","NIACIN","UNCODED","PROPHYLAXIS OR NON-THERAPEUTIC USE","UNCODED",1000,"mg","BID","ORAL","SCREENING 1","20-MAR-2013","2001","","Y"],[731,"CDISCPILOT01","701","1234","1","NIACIN","UNCODED","PROPHYLAXIS OR NON-THERAPEUTIC USE","UNCODED",1000,"mg","BID","ORAL","SCREENING 2","28-MAR-2013","2001","","Y"],[732,"CDISCPILOT01","701","1234","1","NIACIN","UNCODED","PROPHYLAXIS OR NON-THERAPEUTIC USE","UNCODED",1000,"mg","BID","ORAL","BASELINE","30-MAR-2013","2001","","Y"],[733,"CDISCPILOT01","701","1234","1","NIACIN","UNCODED","PROPHYLAXIS OR NON-THERAPEUTIC USE","UNCODED",1000,"mg","BID","ORAL","WEEK 2","21-APR-2013","2001","","Y"],[734,"CDISCPILOT01","701","1234","1","NIACIN","UNCODED","PROPHYLAXIS OR NON-THERAPEUTIC USE","UNCODED",1000,"mg","BID","ORAL","WEEK 4","28-APR-2013","2001","","Y"],[735,"CDISCPILOT01","701","1234","1","NIACIN","UNCODED","PROPHYLAXIS OR NON-THERAPEUTIC USE","UNCODED",1000,"mg","BID","ORAL","AMBUL ECG REMOVAL","30-APR-2013","2001","","Y"],[736,"CDISCPILOT01","701","1234","1","NIACIN","UNCODED","PROPHYLAXIS OR NON-THERAPEUTIC USE","UNCODED",1000,"mg","BID","ORAL","WEEK 6","08-MAY-2013","2001","","Y"],[737,"CDISCPILOT01","701","1234","1","NIACIN","UNCODED","PROPHYLAXIS OR NON-THERAPEUTIC USE","UNCODED",1000,"mg","BID","ORAL","WEEK 8","26-MAY-2013","2001","","Y"],[738,"CDISCPILOT01","701","1234","1","NIACIN","UNCODED","PROPHYLAXIS OR NON-THERAPEUTIC USE","UNCODED",1000,"mg","BID","ORAL","WEEK 12","07-JUL-2013","2001","","Y"],[739,"CDISCPILOT01","701","1234","1","NIACIN","UNCODED","PROPHYLAXIS OR NON-THERAPEUTIC USE","UNCODED",1000,"mg","BID","ORAL","WEEK 16","27-JUL-2013","2001","","Y"],[740,"CDISCPILOT01","701","1234","1","NIACIN","UNCODED","PROPHYLAXIS OR NON-THERAPEUTIC USE","UNCODED",1000,"mg","BID","ORAL","WEEK 20","18-AUG-2013","2001","","Y"],[741,"CDISCPILOT01","701","1234","1","NIACIN","UNCODED","PROPHYLAXIS OR NON-THERAPEUTIC USE","UNCODED",1000,"mg","BID","ORAL","WEEK 24","10-SEP-2013","2001","","Y"],[742,"CDISCPILOT01","701","1234","1","NIACIN","UNCODED","PROPHYLAXIS OR NON-THERAPEUTIC USE","UNCODED",1000,"mg","BID","ORAL","WEEK 26","22-SEP-2013","2001","","Y"],[743,"CDISCPILOT01","701","1239","1","ADVIL","UNCODED","","UNCODED",2,"TABLET","PRN","ORAL","SCREENING 1","28-DEC-2013","2007","","Y"],[744,"CDISCPILOT01","701","1239","1","ADVIL","UNCODED","","UNCODED",2,"TABLET","PRN","ORAL","SCREENING 2","09-JAN-2014","2007","","Y"],[745,"CDISCPILOT01","701","1239","1","ADVIL","UNCODED","","UNCODED",2,"TABLET","PRN","ORAL","BASELINE","11-JAN-2014","2007","","Y"],[746,"CDISCPILOT01","701","1239","1","ADVIL","UNCODED","","UNCODED",2,"TABLET","PRN","ORAL","WEEK 2","25-JAN-2014","2007","","Y"],[747,"CDISCPILOT01","701","1239","1","ADVIL","UNCODED","","UNCODED",2,"TABLET","PRN","ORAL","WEEK 4","08-FEB-2014","2007","","Y"],[748,"CDISCPILOT01","701","1239","1","ADVIL","UNCODED","","UNCODED",2,"TABLET","PRN","ORAL","AMBUL ECG REMOVAL","10-FEB-2014","2007","","Y"],[749,"CDISCPILOT01","701","1239","1","ADVIL","UNCODED","","UNCODED",2,"TABLET","PRN","ORAL","WEEK 6","19-FEB-2014","2007","","Y"],[750,"CDISCPILOT01","701","1239","1","ADVIL","UNCODED","","UNCODED",2,"TABLET","PRN","ORAL","WEEK 8","06-MAR-2014","2007","","Y"],[751,"CDISCPILOT01","701","1239","1","ADVIL","UNCODED","","UNCODED",2,"TABLET","PRN","ORAL","WEEK 12","02-APR-2014","2007","","Y"],[752,"CDISCPILOT01","701","1239","1","ADVIL","UNCODED","","UNCODED",2,"TABLET","PRN","ORAL","WEEK 16","02-MAY-2014","2007","","Y"],[753,"CDISCPILOT01","701","1239","1","ADVIL","UNCODED","","UNCODED",2,"TABLET","PRN","ORAL","WEEK 20","28-MAY-2014","2007","","Y"],[754,"CDISCPILOT01","701","1239","1","ADVIL","UNCODED","","UNCODED",2,"TABLET","PRN","ORAL","WEEK 24","27-JUN-2014","2007","","Y"],[755,"CDISCPILOT01","701","1239","1","ADVIL","UNCODED","","UNCODED",2,"TABLET","PRN","ORAL","WEEK 26","11-JUL-2014","2007","","Y"],[756,"CDISCPILOT01","701","1239","2","MOTRIN","UNCODED","","UNCODED",2,"TABLET","PRN","ORAL","SCREENING 1","28-DEC-2013","2007","","Y"],[757,"CDISCPILOT01","701","1239","2","MOTRIN","UNCODED","","UNCODED",2,"TABLET","PRN","ORAL","SCREENING 2","09-JAN-2014","2007","","Y"],[758,"CDISCPILOT01","701","1239","2","MOTRIN","UNCODED","","UNCODED",2,"TABLET","PRN","ORAL","BASELINE","11-JAN-2014","2007","","Y"],[759,"CDISCPILOT01","701","1239","2","MOTRIN","UNCODED","","UNCODED",2,"TABLET","PRN","ORAL","WEEK 2","25-JAN-2014","2007","","Y"],[760,"CDISCPILOT01","701","1239","2","MOTRIN","UNCODED","","UNCODED",2,"TABLET","PRN","ORAL","WEEK 4","08-FEB-2014","2007","","Y"],[761,"CDISCPILOT01","701","1239","2","MOTRIN","UNCODED","","UNCODED",2,"TABLET","PRN","ORAL","AMBUL ECG REMOVAL","10-FEB-2014","2007","","Y"],[762,"CDISCPILOT01","701","1239","2","MOTRIN","UNCODED","","UNCODED",2,"TABLET","PRN","ORAL","WEEK 6","19-FEB-2014","2007","","Y"],[763,"CDISCPILOT01","701","1239","2","MOTRIN","UNCODED","","UNCODED",2,"TABLET","PRN","ORAL","WEEK 8","06-MAR-2014","2007","","Y"],[764,"CDISCPILOT01","701","1239","2","MOTRIN","UNCODED","","UNCODED",2,"TABLET","PRN","ORAL","WEEK 12","02-APR-2014","2007","","Y"],[765,"CDISCPILOT01","701","1239","2","MOTRIN","UNCODED","","UNCODED",2,"TABLET","PRN","ORAL","WEEK 16","02-MAY-2014","2007","","Y"],[766,"CDISCPILOT01","701","1239","2","MOTRIN","UNCODED","","UNCODED",2,"TABLET","PRN","ORAL","WEEK 20","28-MAY-2014","2007","","Y"],[767,"CDISCPILOT01","701","1239","2","MOTRIN","UNCODED","","UNCODED",2,"TABLET","PRN","ORAL","WEEK 24","27-JUN-2014","2007","","Y"],[768,"CDISCPILOT01","701","1239","2","MOTRIN","UNCODED","","UNCODED",2,"TABLET","PRN","ORAL","WEEK 26","11-JUL-2014","2007","","Y"],[769,"CDISCPILOT01","701","1239","3","DIABETA","UNCODED","","UNCODED",2.5,"mg","QD","ORAL","WEEK 4","08-FEB-2014","04-FEB-2014","","Y"],[770,"CDISCPILOT01","701","1239","3","DIABETA","UNCODED","","UNCODED",2.5,"mg","QD","ORAL","AMBUL ECG REMOVAL","10-FEB-2014","04-FEB-2014","","Y"],[771,"CDISCPILOT01","701","1239","3","DIABETA","UNCODED","","UNCODED",2.5,"mg","QD","ORAL","WEEK 6","19-FEB-2014","04-FEB-2014","","Y"],[772,"CDISCPILOT01","701","1239","3","DIABETA","UNCODED","","UNCODED",2.5,"mg","QD","ORAL","WEEK 8","06-MAR-2014","04-FEB-2014","","Y"],[773,"CDISCPILOT01","701","1239","3","DIABETA","UNCODED","","UNCODED",2.5,"mg","QD","ORAL","WEEK 12","02-APR-2014","04-FEB-2014","","Y"],[774,"CDISCPILOT01","701","1239","3","DIABETA","UNCODED","","UNCODED",2.5,"mg","QD","ORAL","WEEK 16","02-MAY-2014","04-FEB-2014","","Y"],[775,"CDISCPILOT01","701","1239","3","DIABETA","UNCODED","","UNCODED",2.5,"mg","QD","ORAL","WEEK 20","28-MAY-2014","04-FEB-2014","","Y"],[776,"CDISCPILOT01","701","1239","3","DIABETA","UNCODED","","UNCODED",2.5,"mg","QD","ORAL","WEEK 24","27-JUN-2014","04-FEB-2014","","Y"],[777,"CDISCPILOT01","701","1239","3","DIABETA","UNCODED","","UNCODED",2.5,"mg","QD","ORAL","WEEK 26","11-JUL-2014","04-FEB-2014","","Y"],[778,"CDISCPILOT01","701","1275","1","TYLENOL","UNCODED","","UNCODED",325,"mg","PRN","ORAL","SCREENING 1","25-JAN-2014","1997","","Y"],[779,"CDISCPILOT01","701","1275","1","TYLENOL","UNCODED","","UNCODED",325,"mg","PRN","ORAL","SCREENING 2","05-FEB-2014","1997","","Y"],[780,"CDISCPILOT01","701","1275","1","TYLENOL","UNCODED","","UNCODED",325,"mg","PRN","ORAL","BASELINE","07-FEB-2014","1997","","Y"],[781,"CDISCPILOT01","701","1275","1","TYLENOL","UNCODED","","UNCODED",325,"mg","PRN","ORAL","WEEK 2","22-FEB-2014","1997","","Y"],[782,"CDISCPILOT01","701","1275","1","TYLENOL","UNCODED","","UNCODED",325,"mg","PRN","ORAL","WEEK 4","07-MAR-2014","1997","","Y"],[783,"CDISCPILOT01","701","1275","1","TYLENOL","UNCODED","","UNCODED",325,"mg","PRN","ORAL","AMBUL ECG REMOVAL","08-MAR-2014","1997","","Y"],[784,"CDISCPILOT01","701","1275","1","TYLENOL","UNCODED","","UNCODED",325,"mg","PRN","ORAL","WEEK 6","22-MAR-2014","1997","","Y"],[785,"CDISCPILOT01","701","1275","1","TYLENOL","UNCODED","","UNCODED",325,"mg","PRN","ORAL","WEEK 8","05-APR-2014","1997","","Y"],[786,"CDISCPILOT01","701","1275","1","TYLENOL","UNCODED","","UNCODED",325,"mg","PRN","ORAL","WEEK 12","03-MAY-2014","1997","","Y"],[787,"CDISCPILOT01","701","1275","1","TYLENOL","UNCODED","","UNCODED",325,"mg","PRN","ORAL","WEEK 16","14-JUN-2014","1997","","Y"],[788,"CDISCPILOT01","701","1275","2","VITAMIN C","UNCODED","","UNCODED",500,"mg","QD","ORAL","WEEK 6","22-MAR-2014","12-MAR-2014","","Y"],[789,"CDISCPILOT01","701","1275","2","VITAMIN C","UNCODED","","UNCODED",500,"mg","QD","ORAL","WEEK 8","05-APR-2014","12-MAR-2014","","Y"],[790,"CDISCPILOT01","701","1275","2","VITAMIN C","UNCODED","","UNCODED",500,"mg","QD","ORAL","WEEK 12","03-MAY-2014","12-MAR-2014","","Y"],[791,"CDISCPILOT01","701","1275","2","VITAMIN C","UNCODED","","UNCODED",500,"mg","QD","ORAL","WEEK 16","14-JUN-2014","12-MAR-2014","","Y"],[792,"CDISCPILOT01","701","1287","1","MULTIVITAMIN","UNCODED","PROPHYLAXIS OR NON-THERAPEUTIC USE","UNCODED",1,"TABLET","QD","ORAL","SCREENING 1","17-JAN-2014","OCT-2001","","Y"],[793,"CDISCPILOT01","701","1287","1","MULTIVITAMIN","UNCODED","PROPHYLAXIS OR NON-THERAPEUTIC USE","UNCODED",1,"TABLET","QD","ORAL","SCREENING 2","23-JAN-2014","OCT-2001","","Y"],[794,"CDISCPILOT01","701","1287","1","MULTIVITAMIN","UNCODED","PROPHYLAXIS OR NON-THERAPEUTIC USE","UNCODED",1,"TABLET","QD","ORAL","BASELINE","25-JAN-2014","OCT-2001","","Y"],[795,"CDISCPILOT01","701","1287","1","MULTIVITAMIN","UNCODED","PROPHYLAXIS OR NON-THERAPEUTIC USE","UNCODED",1,"TABLET","QD","ORAL","WEEK 2","11-FEB-2014","OCT-2001","","Y"],[796,"CDISCPILOT01","701","1287","1","MULTIVITAMIN","UNCODED","PROPHYLAXIS OR NON-THERAPEUTIC USE","UNCODED",1,"TABLET","QD","ORAL","WEEK 4","20-FEB-2014","OCT-2001","","Y"],[797,"CDISCPILOT01","701","1287","1","MULTIVITAMIN","UNCODED","PROPHYLAXIS OR NON-THERAPEUTIC USE","UNCODED",1,"TABLET","QD","ORAL","AMBUL ECG REMOVAL","22-FEB-2014","OCT-2001","","Y"],[798,"CDISCPILOT01","701","1287","1","MULTIVITAMIN","UNCODED","PROPHYLAXIS OR NON-THERAPEUTIC USE","UNCODED",1,"TABLET","QD","ORAL","WEEK 6","06-MAR-2014","OCT-2001","","Y"],[799,"CDISCPILOT01","701","1287","1","MULTIVITAMIN","UNCODED","PROPHYLAXIS OR NON-THERAPEUTIC USE","UNCODED",1,"TABLET","QD","ORAL","WEEK 8","21-MAR-2014","OCT-2001","","Y"],[800,"CDISCPILOT01","701","1287","1","MULTIVITAMIN","UNCODED","PROPHYLAXIS OR NON-THERAPEUTIC USE","UNCODED",1,"TABLET","QD","ORAL","WEEK 12","17-APR-2014","OCT-2001","","Y"],[801,"CDISCPILOT01","701","1287","1","MULTIVITAMIN","UNCODED","PROPHYLAXIS OR NON-THERAPEUTIC USE","UNCODED",1,"TABLET","QD","ORAL","WEEK 16","15-MAY-2014","OCT-2001","","Y"],[802,"CDISCPILOT01","701","1287","1","MULTIVITAMIN","UNCODED","PROPHYLAXIS OR NON-THERAPEUTIC USE","UNCODED",1,"TABLET","QD","ORAL","WEEK 20","12-JUN-2014","OCT-2001","","Y"],[803,"CDISCPILOT01","701","1287","1","MULTIVITAMIN","UNCODED","PROPHYLAXIS OR NON-THERAPEUTIC USE","UNCODED",1,"TABLET","QD","ORAL","WEEK 24","12-JUL-2014","OCT-2001","","Y"],[804,"CDISCPILOT01","701","1287","1","MULTIVITAMIN","UNCODED","PROPHYLAXIS OR NON-THERAPEUTIC USE","UNCODED",1,"TABLET","QD","ORAL","WEEK 26","26-JUL-2014","OCT-2001","","Y"],[805,"CDISCPILOT01","701","1287","2","PREMARIN","ESTROGENS CONJUGATED","PROPHYLAXIS OR NON-THERAPEUTIC USE","GENITO URINARY SYSTEM AND SEX HORMONES",0.625,"mg","QD","ORAL","SCREENING 1","17-JAN-2014","28-JUN-2013","","Y"],[806,"CDISCPILOT01","701","1287","2","PREMARIN","ESTROGENS CONJUGATED","PROPHYLAXIS OR NON-THERAPEUTIC USE","GENITO URINARY SYSTEM AND SEX HORMONES",0.625,"mg","QD","ORAL","SCREENING 2","23-JAN-2014","28-JUN-2013","","Y"],[807,"CDISCPILOT01","701","1287","2","PREMARIN","ESTROGENS CONJUGATED","PROPHYLAXIS OR NON-THERAPEUTIC USE","GENITO URINARY SYSTEM AND SEX HORMONES",0.625,"mg","QD","ORAL","BASELINE","25-JAN-2014","28-JUN-2013","","Y"],[808,"CDISCPILOT01","701","1287","2","PREMARIN","ESTROGENS CONJUGATED","PROPHYLAXIS OR NON-THERAPEUTIC USE","GENITO URINARY SYSTEM AND SEX HORMONES",0.625,"mg","QD","ORAL","WEEK 2","11-FEB-2014","28-JUN-2013","","Y"],[809,"CDISCPILOT01","701","1287","2","PREMARIN","ESTROGENS CONJUGATED","PROPHYLAXIS OR NON-THERAPEUTIC USE","GENITO URINARY SYSTEM AND SEX HORMONES",0.625,"mg","QD","ORAL","WEEK 4","20-FEB-2014","28-JUN-2013","","Y"],[810,"CDISCPILOT01","701","1287","2","PREMARIN","ESTROGENS CONJUGATED","PROPHYLAXIS OR NON-THERAPEUTIC USE","GENITO URINARY SYSTEM AND SEX HORMONES",0.625,"mg","QD","ORAL","AMBUL ECG REMOVAL","22-FEB-2014","28-JUN-2013","","Y"],[811,"CDISCPILOT01","701","1287","2","PREMARIN","ESTROGENS CONJUGATED","PROPHYLAXIS OR NON-THERAPEUTIC USE","GENITO URINARY SYSTEM AND SEX HORMONES",0.625,"mg","QD","ORAL","WEEK 6","06-MAR-2014","28-JUN-2013","","Y"],[812,"CDISCPILOT01","701","1287","2","PREMARIN","ESTROGENS CONJUGATED","PROPHYLAXIS OR NON-THERAPEUTIC USE","GENITO URINARY SYSTEM AND SEX HORMONES",0.625,"mg","QD","ORAL","WEEK 8","21-MAR-2014","28-JUN-2013","","Y"],[813,"CDISCPILOT01","701","1287","2","PREMARIN","ESTROGENS CONJUGATED","PROPHYLAXIS OR NON-THERAPEUTIC USE","GENITO URINARY SYSTEM AND SEX HORMONES",0.625,"mg","QD","ORAL","WEEK 12","17-APR-2014","28-JUN-2013","","Y"],[814,"CDISCPILOT01","701","1287","2","PREMARIN","ESTROGENS CONJUGATED","PROPHYLAXIS OR NON-THERAPEUTIC USE","GENITO URINARY SYSTEM AND SEX HORMONES",0.625,"mg","QD","ORAL","WEEK 16","15-MAY-2014","28-JUN-2013","","Y"],[815,"CDISCPILOT01","701","1287","2","PREMARIN","ESTROGENS CONJUGATED","PROPHYLAXIS OR NON-THERAPEUTIC USE","GENITO URINARY SYSTEM AND SEX HORMONES",0.625,"mg","QD","ORAL","WEEK 20","12-JUN-2014","28-JUN-2013","","Y"],[816,"CDISCPILOT01","701","1287","2","PREMARIN","ESTROGENS CONJUGATED","PROPHYLAXIS OR NON-THERAPEUTIC USE","GENITO URINARY SYSTEM AND SEX HORMONES",0.625,"mg","QD","ORAL","WEEK 24","12-JUL-2014","28-JUN-2013","","Y"],[817,"CDISCPILOT01","701","1287","2","PREMARIN","ESTROGENS CONJUGATED","PROPHYLAXIS OR NON-THERAPEUTIC USE","GENITO URINARY SYSTEM AND SEX HORMONES",0.625,"mg","QD","ORAL","WEEK 26","26-JUL-2014","28-JUN-2013","","Y"],[818,"CDISCPILOT01","701","1287","3","ALOE VERA","UNCODED","","UNCODED",1,"VIAL","PRN","TOPICAL","WEEK 8","21-MAR-2014","09-MAR-2014","","Y"],[819,"CDISCPILOT01","701","1287","3","ALOE VERA","UNCODED","","UNCODED",1,"VIAL","PRN","TOPICAL","WEEK 12","17-APR-2014","09-MAR-2014","","Y"],[820,"CDISCPILOT01","701","1287","3","ALOE VERA","UNCODED","","UNCODED",1,"VIAL","PRN","TOPICAL","WEEK 16","15-MAY-2014","09-MAR-2014","","Y"],[821,"CDISCPILOT01","701","1287","3","ALOE VERA","UNCODED","","UNCODED",1,"VIAL","PRN","TOPICAL","WEEK 20","12-JUN-2014","09-MAR-2014","","Y"],[822,"CDISCPILOT01","701","1287","3","ALOE VERA","UNCODED","","UNCODED",1,"VIAL","PRN","TOPICAL","WEEK 24","12-JUL-2014","09-MAR-2014","","Y"],[823,"CDISCPILOT01","701","1287","3","ALOE VERA","UNCODED","","UNCODED",1,"VIAL","PRN","TOPICAL","WEEK 26","26-JUL-2014","09-MAR-2014","","Y"],[824,"CDISCPILOT01","701","1287","4","HYDROCORTISONE","HYDROCORTISONE","","SYSTEMIC HORMONAL PREPARATIONS, EXCL.",2,"VIAL","QD","TOPICAL","WEEK 16","15-MAY-2014","18-APR-2014","","Y"],[825,"CDISCPILOT01","701","1287","4","HYDROCORTISONE","HYDROCORTISONE","","SYSTEMIC HORMONAL PREPARATIONS, EXCL.",2,"VIAL","QD","TOPICAL","WEEK 20","12-JUN-2014","18-APR-2014","","Y"],[826,"CDISCPILOT01","701","1287","4","HYDROCORTISONE","HYDROCORTISONE","","SYSTEMIC HORMONAL PREPARATIONS, EXCL.",2,"VIAL","QD","TOPICAL","WEEK 24","12-JUL-2014","18-APR-2014","","Y"],[827,"CDISCPILOT01","701","1287","4","HYDROCORTISONE","HYDROCORTISONE","","SYSTEMIC HORMONAL PREPARATIONS, EXCL.",2,"VIAL","QD","TOPICAL","WEEK 26","26-JUL-2014","18-APR-2014","","Y"],[828,"CDISCPILOT01","701","1294","1","HISMANAL","UNCODED","","UNCODED",10,"mg","PRN","ORAL","SCREENING 1","17-MAR-2013","MAR-2012","","Y"],[829,"CDISCPILOT01","701","1294","1","HISMANAL","UNCODED","","UNCODED",10,"mg","PRN","ORAL","SCREENING 2","22-MAR-2013","MAR-2012","","Y"],[830,"CDISCPILOT01","701","1294","1","HISMANAL","UNCODED","","UNCODED",10,"mg","PRN","ORAL","BASELINE","24-MAR-2013","MAR-2012","","Y"],[831,"CDISCPILOT01","701","1294","1","HISMANAL","UNCODED","","UNCODED",10,"mg","PRN","ORAL","WEEK 2","10-APR-2013","MAR-2012","","Y"],[832,"CDISCPILOT01","701","1294","1","HISMANAL","UNCODED","","UNCODED",10,"mg","PRN","ORAL","WEEK 4","24-APR-2013","MAR-2012","","Y"],[833,"CDISCPILOT01","701","1294","1","HISMANAL","UNCODED","","UNCODED",10,"mg","PRN","ORAL","AMBUL ECG REMOVAL","26-APR-2013","MAR-2012","","Y"],[834,"CDISCPILOT01","701","1294","1","HISMANAL","UNCODED","","UNCODED",10,"mg","PRN","ORAL","WEEK 6","08-MAY-2013","MAR-2012","","Y"],[835,"CDISCPILOT01","701","1294","1","HISMANAL","UNCODED","","UNCODED",10,"mg","PRN","ORAL","WEEK 8","22-MAY-2013","MAR-2012","","Y"],[836,"CDISCPILOT01","701","1294","1","HISMANAL","UNCODED","","UNCODED",10,"mg","PRN","ORAL","WEEK 12","14-JUN-2013","MAR-2012","","Y"],[837,"CDISCPILOT01","701","1294","1","HISMANAL","UNCODED","","UNCODED",10,"mg","PRN","ORAL","AE FOLLOW-UP","23-AUG-2013","MAR-2012","","Y"],[838,"CDISCPILOT01","701","1294","1","HISMANAL","UNCODED","","UNCODED",10,"mg","PRN","ORAL","RETRIEVAL","08-OCT-2013","MAR-2012","","Y"],[839,"CDISCPILOT01","701","1294","2","MULTIVITAMIN","UNCODED","PROPHYLAXIS OR NON-THERAPEUTIC USE","UNCODED",3,"TABLET","QD","ORAL","SCREENING 1","17-MAR-2013","DEC-2012","","Y"],[840,"CDISCPILOT01","701","1294","2","MULTIVITAMIN","UNCODED","PROPHYLAXIS OR NON-THERAPEUTIC USE","UNCODED",3,"TABLET","QD","ORAL","SCREENING 2","22-MAR-2013","DEC-2012","","Y"],[841,"CDISCPILOT01","701","1294","2","MULTIVITAMIN","UNCODED","PROPHYLAXIS OR NON-THERAPEUTIC USE","UNCODED",3,"TABLET","QD","ORAL","BASELINE","24-MAR-2013","DEC-2012","","Y"],[842,"CDISCPILOT01","701","1294","2","MULTIVITAMIN","UNCODED","PROPHYLAXIS OR NON-THERAPEUTIC USE","UNCODED",3,"TABLET","QD","ORAL","WEEK 2","10-APR-2013","DEC-2012","","Y"],[843,"CDISCPILOT01","701","1294","2","MULTIVITAMIN","UNCODED","PROPHYLAXIS OR NON-THERAPEUTIC USE","UNCODED",3,"TABLET","QD","ORAL","WEEK 4","24-APR-2013","DEC-2012","","Y"],[844,"CDISCPILOT01","701","1294","2","MULTIVITAMIN","UNCODED","PROPHYLAXIS OR NON-THERAPEUTIC USE","UNCODED",3,"TABLET","QD","ORAL","AMBUL ECG REMOVAL","26-APR-2013","DEC-2012","","Y"],[845,"CDISCPILOT01","701","1294","2","MULTIVITAMIN","UNCODED","PROPHYLAXIS OR NON-THERAPEUTIC USE","UNCODED",3,"TABLET","QD","ORAL","WEEK 6","08-MAY-2013","DEC-2012","","Y"],[846,"CDISCPILOT01","701","1294","2","MULTIVITAMIN","UNCODED","PROPHYLAXIS OR NON-THERAPEUTIC USE","UNCODED",3,"TABLET","QD","ORAL","WEEK 8","22-MAY-2013","DEC-2012","","Y"],[847,"CDISCPILOT01","701","1294","2","MULTIVITAMIN","UNCODED","PROPHYLAXIS OR NON-THERAPEUTIC USE","UNCODED",3,"TABLET","QD","ORAL","WEEK 12","14-JUN-2013","DEC-2012","","Y"],[848,"CDISCPILOT01","701","1294","2","MULTIVITAMIN","UNCODED","PROPHYLAXIS OR NON-THERAPEUTIC USE","UNCODED",3,"TABLET","QD","ORAL","AE FOLLOW-UP","23-AUG-2013","DEC-2012","","Y"],[849,"CDISCPILOT01","701","1294","2","MULTIVITAMIN","UNCODED","PROPHYLAXIS OR NON-THERAPEUTIC USE","UNCODED",3,"TABLET","QD","ORAL","RETRIEVAL","08-OCT-2013","DEC-2012","","Y"],[850,"CDISCPILOT01","701","1294","3","NASACORT","UNCODED","","UNCODED",1,"PUFF","QD","RESPIRATORY (INHALATION)","SCREENING 1","17-MAR-2013","MAR-2012","","Y"],[851,"CDISCPILOT01","701","1294","3","NASACORT","UNCODED","","UNCODED",1,"PUFF","QD","RESPIRATORY (INHALATION)","SCREENING 2","22-MAR-2013","MAR-2012","","Y"],[852,"CDISCPILOT01","701","1294","3","NASACORT","UNCODED","","UNCODED",1,"PUFF","QD","RESPIRATORY (INHALATION)","BASELINE","24-MAR-2013","MAR-2012","","Y"],[853,"CDISCPILOT01","701","1294","3","NASACORT","UNCODED","","UNCODED",1,"PUFF","QD","RESPIRATORY (INHALATION)","WEEK 2","10-APR-2013","MAR-2012","","Y"],[854,"CDISCPILOT01","701","1294","3","NASACORT","UNCODED","","UNCODED",1,"PUFF","QD","RESPIRATORY (INHALATION)","WEEK 4","24-APR-2013","MAR-2012","","Y"],[855,"CDISCPILOT01","701","1294","3","NASACORT","UNCODED","","UNCODED",1,"PUFF","QD","RESPIRATORY (INHALATION)","AMBUL ECG REMOVAL","26-APR-2013","MAR-2012","","Y"],[856,"CDISCPILOT01","701","1294","3","NASACORT","UNCODED","","UNCODED",1,"PUFF","QD","RESPIRATORY (INHALATION)","WEEK 6","08-MAY-2013","MAR-2012","","Y"],[857,"CDISCPILOT01","701","1294","3","NASACORT","UNCODED","","UNCODED",1,"PUFF","QD","RESPIRATORY (INHALATION)","WEEK 8","22-MAY-2013","MAR-2012","","Y"],[858,"CDISCPILOT01","701","1294","3","NASACORT","UNCODED","","UNCODED",1,"PUFF","QD","RESPIRATORY (INHALATION)","WEEK 12","14-JUN-2013","MAR-2012","","Y"],[859,"CDISCPILOT01","701","1294","3","NASACORT","UNCODED","","UNCODED",1,"PUFF","QD","RESPIRATORY (INHALATION)","AE FOLLOW-UP","23-AUG-2013","MAR-2012","","Y"],[860,"CDISCPILOT01","701","1294","3","NASACORT","UNCODED","","UNCODED",1,"PUFF","QD","RESPIRATORY (INHALATION)","RETRIEVAL","08-OCT-2013","MAR-2012","","Y"],[861,"CDISCPILOT01","701","1294","4","HYDROCORTISONE","HYDROCORTISONE","","SYSTEMIC HORMONAL PREPARATIONS, EXCL.",1,"VIAL","QD","TOPICAL","WEEK 12","14-JUN-2013","04-JUN-2013","12-JUN-2013","N"],[862,"CDISCPILOT01","701","1302","1","ADVIL","UNCODED","","UNCODED",2,"TABLET","PRN","ORAL","SCREENING 1","20-AUG-2013","2010","","Y"],[863,"CDISCPILOT01","701","1302","1","ADVIL","UNCODED","","UNCODED",2,"TABLET","PRN","ORAL","SCREENING 2","27-AUG-2013","2010","","Y"],[864,"CDISCPILOT01","701","1302","1","ADVIL","UNCODED","","UNCODED",2,"TABLET","PRN","ORAL","BASELINE","29-AUG-2013","2010","","Y"],[865,"CDISCPILOT01","701","1302","1","ADVIL","UNCODED","","UNCODED",2,"TABLET","PRN","ORAL","WEEK 2","15-SEP-2013","2010","","Y"],[866,"CDISCPILOT01","701","1302","1","ADVIL","UNCODED","","UNCODED",2,"TABLET","PRN","ORAL","WEEK 4","24-SEP-2013","2010","","Y"],[867,"CDISCPILOT01","701","1302","1","ADVIL","UNCODED","","UNCODED",2,"TABLET","PRN","ORAL","AMBUL ECG REMOVAL","26-SEP-2013","2010","","Y"],[868,"CDISCPILOT01","701","1302","1","ADVIL","UNCODED","","UNCODED",2,"TABLET","PRN","ORAL","WEEK 6","08-OCT-2013","2010","","Y"],[869,"CDISCPILOT01","701","1302","1","ADVIL","UNCODED","","UNCODED",2,"TABLET","PRN","ORAL","WEEK 8","22-OCT-2013","2010","","Y"],[870,"CDISCPILOT01","701","1302","1","ADVIL","UNCODED","","UNCODED",2,"TABLET","PRN","ORAL","WEEK 12","05-NOV-2013","2010","","Y"],[871,"CDISCPILOT01","701","1302","1","ADVIL","UNCODED","","UNCODED",2,"TABLET","PRN","ORAL","AE FOLLOW-UP","16-DEC-2013","2010","","Y"],[872,"CDISCPILOT01","701","1302","1","ADVIL","UNCODED","","UNCODED",2,"TABLET","PRN","ORAL","RETRIEVAL","13-FEB-2014","2010","","Y"],[873,"CDISCPILOT01","701","1302","2","EXCEDRIN","UNCODED","","UNCODED",2,"TABLET","PRN","ORAL","SCREENING 1","20-AUG-2013","2011","","Y"],[874,"CDISCPILOT01","701","1302","2","EXCEDRIN","UNCODED","","UNCODED",2,"TABLET","PRN","ORAL","SCREENING 2","27-AUG-2013","2011","","Y"],[875,"CDISCPILOT01","701","1302","2","EXCEDRIN","UNCODED","","UNCODED",2,"TABLET","PRN","ORAL","BASELINE","29-AUG-2013","2011","","Y"],[876,"CDISCPILOT01","701","1302","2","EXCEDRIN","UNCODED","","UNCODED",2,"TABLET","PRN","ORAL","WEEK 2","15-SEP-2013","2011","","Y"],[877,"CDISCPILOT01","701","1302","2","EXCEDRIN","UNCODED","","UNCODED",2,"TABLET","PRN","ORAL","WEEK 4","24-SEP-2013","2011","","Y"],[878,"CDISCPILOT01","701","1302","2","EXCEDRIN","UNCODED","","UNCODED",2,"TABLET","PRN","ORAL","AMBUL ECG REMOVAL","26-SEP-2013","2011","","Y"],[879,"CDISCPILOT01","701","1302","2","EXCEDRIN","UNCODED","","UNCODED",2,"TABLET","PRN","ORAL","WEEK 6","08-OCT-2013","2011","","Y"],[880,"CDISCPILOT01","701","1302","2","EXCEDRIN","UNCODED","","UNCODED",2,"TABLET","PRN","ORAL","WEEK 8","22-OCT-2013","2011","","Y"],[881,"CDISCPILOT01","701","1302","2","EXCEDRIN","UNCODED","","UNCODED",2,"TABLET","PRN","ORAL","WEEK 12","05-NOV-2013","2011","","Y"],[882,"CDISCPILOT01","701","1302","2","EXCEDRIN","UNCODED","","UNCODED",2,"TABLET","PRN","ORAL","AE FOLLOW-UP","16-DEC-2013","2011","","Y"],[883,"CDISCPILOT01","701","1302","2","EXCEDRIN","UNCODED","","UNCODED",2,"TABLET","PRN","ORAL","RETRIEVAL","13-FEB-2014","2011","","Y"],[884,"CDISCPILOT01","701","1302","3","METAMUCIL","UNCODED","","UNCODED",2,"Tbsp","QD","ORAL","SCREENING 1","20-AUG-2013","01-MAR-2012","","Y"],[885,"CDISCPILOT01","701","1302","3","METAMUCIL","UNCODED","","UNCODED",2,"Tbsp","QD","ORAL","SCREENING 2","27-AUG-2013","01-MAR-2012","","Y"],[886,"CDISCPILOT01","701","1302","3","METAMUCIL","UNCODED","","UNCODED",2,"Tbsp","QD","ORAL","BASELINE","29-AUG-2013","01-MAR-2012","","Y"],[887,"CDISCPILOT01","701","1302","3","METAMUCIL","UNCODED","","UNCODED",2,"Tbsp","QD","ORAL","WEEK 2","15-SEP-2013","01-MAR-2012","","Y"],[888,"CDISCPILOT01","701","1302","3","METAMUCIL","UNCODED","","UNCODED",2,"Tbsp","QD","ORAL","WEEK 4","24-SEP-2013","01-MAR-2012","","Y"],[889,"CDISCPILOT01","701","1302","3","METAMUCIL","UNCODED","","UNCODED",2,"Tbsp","QD","ORAL","AMBUL ECG REMOVAL","26-SEP-2013","01-MAR-2012","","Y"],[890,"CDISCPILOT01","701","1302","3","METAMUCIL","UNCODED","","UNCODED",2,"Tbsp","QD","ORAL","WEEK 6","08-OCT-2013","01-MAR-2012","","Y"],[891,"CDISCPILOT01","701","1302","3","METAMUCIL","UNCODED","","UNCODED",2,"Tbsp","QD","ORAL","WEEK 8","22-OCT-2013","01-MAR-2012","","Y"],[892,"CDISCPILOT01","701","1302","3","METAMUCIL","UNCODED","","UNCODED",2,"Tbsp","QD","ORAL","WEEK 12","05-NOV-2013","01-MAR-2012","","Y"],[893,"CDISCPILOT01","701","1302","3","METAMUCIL","UNCODED","","UNCODED",2,"Tbsp","QD","ORAL","AE FOLLOW-UP","16-DEC-2013","01-MAR-2012","","Y"],[894,"CDISCPILOT01","701","1302","3","METAMUCIL","UNCODED","","UNCODED",2,"Tbsp","QD","ORAL","RETRIEVAL","13-FEB-2014","01-MAR-2012","","Y"],[895,"CDISCPILOT01","701","1302","4","MULTIVITAMINS","UNCODED","PROPHYLAXIS OR NON-THERAPEUTIC USE","UNCODED",1,"TABLET","QD","ORAL","SCREENING 1","20-AUG-2013","2010","","Y"],[896,"CDISCPILOT01","701","1302","4","MULTIVITAMINS","UNCODED","PROPHYLAXIS OR NON-THERAPEUTIC USE","UNCODED",1,"TABLET","QD","ORAL","SCREENING 2","27-AUG-2013","2010","","Y"],[897,"CDISCPILOT01","701","1302","4","MULTIVITAMINS","UNCODED","PROPHYLAXIS OR NON-THERAPEUTIC USE","UNCODED",1,"TABLET","QD","ORAL","BASELINE","29-AUG-2013","2010","","Y"],[898,"CDISCPILOT01","701","1302","4","MULTIVITAMINS","UNCODED","PROPHYLAXIS OR NON-THERAPEUTIC USE","UNCODED",1,"TABLET","QD","ORAL","WEEK 2","15-SEP-2013","2010","","Y"],[899,"CDISCPILOT01","701","1302","4","MULTIVITAMINS","UNCODED","PROPHYLAXIS OR NON-THERAPEUTIC USE","UNCODED",1,"TABLET","QD","ORAL","WEEK 4","24-SEP-2013","2010","","Y"],[900,"CDISCPILOT01","701","1302","4","MULTIVITAMINS","UNCODED","PROPHYLAXIS OR NON-THERAPEUTIC USE","UNCODED",1,"TABLET","QD","ORAL","AMBUL ECG REMOVAL","26-SEP-2013","2010","","Y"],[901,"CDISCPILOT01","701","1302","4","MULTIVITAMINS","UNCODED","PROPHYLAXIS OR NON-THERAPEUTIC USE","UNCODED",1,"TABLET","QD","ORAL","WEEK 6","08-OCT-2013","2010","","Y"],[902,"CDISCPILOT01","701","1302","4","MULTIVITAMINS","UNCODED","PROPHYLAXIS OR NON-THERAPEUTIC USE","UNCODED",1,"TABLET","QD","ORAL","WEEK 8","22-OCT-2013","2010","","Y"],[903,"CDISCPILOT01","701","1302","4","MULTIVITAMINS","UNCODED","PROPHYLAXIS OR NON-THERAPEUTIC USE","UNCODED",1,"TABLET","QD","ORAL","WEEK 12","05-NOV-2013","2010","","Y"],[904,"CDISCPILOT01","701","1302","4","MULTIVITAMINS","UNCODED","PROPHYLAXIS OR NON-THERAPEUTIC USE","UNCODED",1,"TABLET","QD","ORAL","AE FOLLOW-UP","16-DEC-2013","2010","","Y"],[905,"CDISCPILOT01","701","1302","4","MULTIVITAMINS","UNCODED","PROPHYLAXIS OR NON-THERAPEUTIC USE","UNCODED",1,"TABLET","QD","ORAL","RETRIEVAL","13-FEB-2014","2010","","Y"],[906,"CDISCPILOT01","701","1302","5","NEO-SYNEPHRINE","UNCODED","","UNCODED",1,"SPRAY","PRN","NASAL","WEEK 2","15-SEP-2013","01-SEP-2013","30-SEP-2013","N"],[907,"CDISCPILOT01","701","1302","5","NEO-SYNEPHRINE","UNCODED","","UNCODED",1,"SPRAY","PRN","NASAL","WEEK 4","24-SEP-2013","01-SEP-2013","30-SEP-2013","N"],[908,"CDISCPILOT01","701","1302","5","NEO-SYNEPHRINE","UNCODED","","UNCODED",1,"SPRAY","PRN","NASAL","AMBUL ECG REMOVAL","26-SEP-2013","01-SEP-2013","30-SEP-2013","N"],[909,"CDISCPILOT01","701","1302","5","NEO-SYNEPHRINE","UNCODED","","UNCODED",1,"SPRAY","PRN","NASAL","WEEK 6","08-OCT-2013","01-SEP-2013","30-SEP-2013","N"],[910,"CDISCPILOT01","701","1302","6","PSEUDOEPHEDRINE HYDROCHLORIDE","UNCODED","","UNCODED",2,"TABLET","Q4H","ORAL","WEEK 2","15-SEP-2013","02-SEP-2013","30-SEP-2013","N"],[911,"CDISCPILOT01","701","1302","6","PSEUDOEPHEDRINE HYDROCHLORIDE","UNCODED","","UNCODED",2,"TABLET","Q4H","ORAL","WEEK 4","24-SEP-2013","02-SEP-2013","30-SEP-2013","N"],[912,"CDISCPILOT01","701","1302","6","PSEUDOEPHEDRINE HYDROCHLORIDE","UNCODED","","UNCODED",2,"TABLET","Q4H","ORAL","AMBUL ECG REMOVAL","26-SEP-2013","02-SEP-2013","30-SEP-2013","N"],[913,"CDISCPILOT01","701","1302","6","PSEUDOEPHEDRINE HYDROCHLORIDE","UNCODED","","UNCODED",2,"TABLET","Q4H","ORAL","WEEK 6","08-OCT-2013","02-SEP-2013","30-SEP-2013","N"],[914,"CDISCPILOT01","701","1317","1","ASPIRIN","ACETYLSALICYLIC ACID","PROPHYLAXIS OR NON-THERAPEUTIC USE","NERVOUS SYSTEM",1,"TABLET","QD","ORAL","SCREENING 1","10-MAY-2014","2013","","Y"],[915,"CDISCPILOT01","701","1317","1","ASPIRIN","ACETYLSALICYLIC ACID","PROPHYLAXIS OR NON-THERAPEUTIC USE","NERVOUS SYSTEM",1,"TABLET","QD","ORAL","SCREENING 2","20-MAY-2014","2013","","Y"],[916,"CDISCPILOT01","701","1317","1","ASPIRIN","ACETYLSALICYLIC ACID","PROPHYLAXIS OR NON-THERAPEUTIC USE","NERVOUS SYSTEM",1,"TABLET","QD","ORAL","BASELINE","22-MAY-2014","2013","","Y"],[917,"CDISCPILOT01","701","1317","1","ASPIRIN","ACETYLSALICYLIC ACID","PROPHYLAXIS OR NON-THERAPEUTIC USE","NERVOUS SYSTEM",1,"TABLET","QD","ORAL","WEEK 2","05-JUN-2014","2013","","Y"],[918,"CDISCPILOT01","701","1317","1","ASPIRIN","ACETYLSALICYLIC ACID","PROPHYLAXIS OR NON-THERAPEUTIC USE","NERVOUS SYSTEM",1,"TABLET","QD","ORAL","WEEK 4","19-JUN-2014","2013","","Y"],[919,"CDISCPILOT01","701","1317","1","ASPIRIN","ACETYLSALICYLIC ACID","PROPHYLAXIS OR NON-THERAPEUTIC USE","NERVOUS SYSTEM",1,"TABLET","QD","ORAL","AMBUL ECG REMOVAL","21-JUN-2014","2013","","Y"],[920,"CDISCPILOT01","701","1317","1","ASPIRIN","ACETYLSALICYLIC ACID","PROPHYLAXIS OR NON-THERAPEUTIC USE","NERVOUS SYSTEM",1,"TABLET","QD","ORAL","WEEK 6","03-JUL-2014","2013","","Y"],[921,"CDISCPILOT01","701","1317","1","ASPIRIN","ACETYLSALICYLIC ACID","PROPHYLAXIS OR NON-THERAPEUTIC USE","NERVOUS SYSTEM",1,"TABLET","QD","ORAL","WEEK 8","22-JUL-2014","2013","","Y"],[922,"CDISCPILOT01","701","1317","1","ASPIRIN","ACETYLSALICYLIC ACID","PROPHYLAXIS OR NON-THERAPEUTIC USE","NERVOUS SYSTEM",1,"TABLET","QD","ORAL","WEEK 12","15-AUG-2014","2013","","Y"],[923,"CDISCPILOT01","701","1317","1","ASPIRIN","ACETYLSALICYLIC ACID","PROPHYLAXIS OR NON-THERAPEUTIC USE","NERVOUS SYSTEM",1,"TABLET","QD","ORAL","WEEK 16","11-SEP-2014","2013","","Y"],[924,"CDISCPILOT01","701","1317","1","ASPIRIN","ACETYLSALICYLIC ACID","PROPHYLAXIS OR NON-THERAPEUTIC USE","NERVOUS SYSTEM",1,"TABLET","QD","ORAL","WEEK 20","09-OCT-2014","2013","","Y"],[925,"CDISCPILOT01","701","1317","1","ASPIRIN","ACETYLSALICYLIC ACID","PROPHYLAXIS OR NON-THERAPEUTIC USE","NERVOUS SYSTEM",1,"TABLET","QD","ORAL","WEEK 24","06-NOV-2014","2013","","Y"],[926,"CDISCPILOT01","701","1317","1","ASPIRIN","ACETYLSALICYLIC ACID","PROPHYLAXIS OR NON-THERAPEUTIC USE","NERVOUS SYSTEM",1,"TABLET","QD","ORAL","WEEK 26","20-NOV-2014","2013","","Y"],[927,"CDISCPILOT01","701","1317","2","FOLIC ACID","UNCODED","PROPHYLAXIS OR NON-THERAPEUTIC USE","UNCODED",1,"TABLET","QD","ORAL","SCREENING 1","10-MAY-2014","2013","","Y"],[928,"CDISCPILOT01","701","1317","2","FOLIC ACID","UNCODED","PROPHYLAXIS OR NON-THERAPEUTIC USE","UNCODED",1,"TABLET","QD","ORAL","SCREENING 2","20-MAY-2014","2013","","Y"],[929,"CDISCPILOT01","701","1317","2","FOLIC ACID","UNCODED","PROPHYLAXIS OR NON-THERAPEUTIC USE","UNCODED",1,"TABLET","QD","ORAL","BASELINE","22-MAY-2014","2013","","Y"],[930,"CDISCPILOT01","701","1317","2","FOLIC ACID","UNCODED","PROPHYLAXIS OR NON-THERAPEUTIC USE","UNCODED",1,"TABLET","QD","ORAL","WEEK 2","05-JUN-2014","2013","","Y"],[931,"CDISCPILOT01","701","1317","2","FOLIC ACID","UNCODED","PROPHYLAXIS OR NON-THERAPEUTIC USE","UNCODED",1,"TABLET","QD","ORAL","WEEK 4","19-JUN-2014","2013","","Y"],[932,"CDISCPILOT01","701","1317","2","FOLIC ACID","UNCODED","PROPHYLAXIS OR NON-THERAPEUTIC USE","UNCODED",1,"TABLET","QD","ORAL","AMBUL ECG REMOVAL","21-JUN-2014","2013","","Y"],[933,"CDISCPILOT01","701","1317","2","FOLIC ACID","UNCODED","PROPHYLAXIS OR NON-THERAPEUTIC USE","UNCODED",1,"TABLET","QD","ORAL","WEEK 6","03-JUL-2014","2013","","Y"],[934,"CDISCPILOT01","701","1317","2","FOLIC ACID","UNCODED","PROPHYLAXIS OR NON-THERAPEUTIC USE","UNCODED",1,"TABLET","QD","ORAL","WEEK 8","22-JUL-2014","2013","","Y"],[935,"CDISCPILOT01","701","1317","2","FOLIC ACID","UNCODED","PROPHYLAXIS OR NON-THERAPEUTIC USE","UNCODED",1,"TABLET","QD","ORAL","WEEK 12","15-AUG-2014","2013","","Y"],[936,"CDISCPILOT01","701","1317","2","FOLIC ACID","UNCODED","PROPHYLAXIS OR NON-THERAPEUTIC USE","UNCODED",1,"TABLET","QD","ORAL","WEEK 16","11-SEP-2014","2013","","Y"],[937,"CDISCPILOT01","701","1317","2","FOLIC ACID","UNCODED","PROPHYLAXIS OR NON-THERAPEUTIC USE","UNCODED",1,"TABLET","QD","ORAL","WEEK 20","09-OCT-2014","2013","","Y"],[938,"CDISCPILOT01","701","1317","2","FOLIC ACID","UNCODED","PROPHYLAXIS OR NON-THERAPEUTIC USE","UNCODED",1,"TABLET","QD","ORAL","WEEK 24","06-NOV-2014","2013","","Y"],[939,"CDISCPILOT01","701","1317","2","FOLIC ACID","UNCODED","PROPHYLAXIS OR NON-THERAPEUTIC USE","UNCODED",1,"TABLET","QD","ORAL","WEEK 26","20-NOV-2014","2013","","Y"],[940,"CDISCPILOT01","701","1317","3","MULTIVITAMIN","UNCODED","PROPHYLAXIS OR NON-THERAPEUTIC USE","UNCODED",1,"TABLET","QD","ORAL","SCREENING 1","10-MAY-2014","2009","","Y"],[941,"CDISCPILOT01","701","1317","3","MULTIVITAMIN","UNCODED","PROPHYLAXIS OR NON-THERAPEUTIC USE","UNCODED",1,"TABLET","QD","ORAL","SCREENING 2","20-MAY-2014","2009","","Y"],[942,"CDISCPILOT01","701","1317","3","MULTIVITAMIN","UNCODED","PROPHYLAXIS OR NON-THERAPEUTIC USE","UNCODED",1,"TABLET","QD","ORAL","BASELINE","22-MAY-2014","2009","","Y"],[943,"CDISCPILOT01","701","1317","3","MULTIVITAMIN","UNCODED","PROPHYLAXIS OR NON-THERAPEUTIC USE","UNCODED",1,"TABLET","QD","ORAL","WEEK 2","05-JUN-2014","2009","","Y"],[944,"CDISCPILOT01","701","1317","3","MULTIVITAMIN","UNCODED","PROPHYLAXIS OR NON-THERAPEUTIC USE","UNCODED",1,"TABLET","QD","ORAL","WEEK 4","19-JUN-2014","2009","","Y"],[945,"CDISCPILOT01","701","1317","3","MULTIVITAMIN","UNCODED","PROPHYLAXIS OR NON-THERAPEUTIC USE","UNCODED",1,"TABLET","QD","ORAL","AMBUL ECG REMOVAL","21-JUN-2014","2009","","Y"],[946,"CDISCPILOT01","701","1317","3","MULTIVITAMIN","UNCODED","PROPHYLAXIS OR NON-THERAPEUTIC USE","UNCODED",1,"TABLET","QD","ORAL","WEEK 6","03-JUL-2014","2009","","Y"],[947,"CDISCPILOT01","701","1317","3","MULTIVITAMIN","UNCODED","PROPHYLAXIS OR NON-THERAPEUTIC USE","UNCODED",1,"TABLET","QD","ORAL","WEEK 8","22-JUL-2014","2009","","Y"],[948,"CDISCPILOT01","701","1317","3","MULTIVITAMIN","UNCODED","PROPHYLAXIS OR NON-THERAPEUTIC USE","UNCODED",1,"TABLET","QD","ORAL","WEEK 12","15-AUG-2014","2009","","Y"],[949,"CDISCPILOT01","701","1317","3","MULTIVITAMIN","UNCODED","PROPHYLAXIS OR NON-THERAPEUTIC USE","UNCODED",1,"TABLET","QD","ORAL","WEEK 16","11-SEP-2014","2009","","Y"],[950,"CDISCPILOT01","701","1317","3","MULTIVITAMIN","UNCODED","PROPHYLAXIS OR NON-THERAPEUTIC USE","UNCODED",1,"TABLET","QD","ORAL","WEEK 20","09-OCT-2014","2009","","Y"],[951,"CDISCPILOT01","701","1317","3","MULTIVITAMIN","UNCODED","PROPHYLAXIS OR NON-THERAPEUTIC USE","UNCODED",1,"TABLET","QD","ORAL","WEEK 24","06-NOV-2014","2009","","Y"],[952,"CDISCPILOT01","701","1317","3","MULTIVITAMIN","UNCODED","PROPHYLAXIS OR NON-THERAPEUTIC USE","UNCODED",1,"TABLET","QD","ORAL","WEEK 26","20-NOV-2014","2009","","Y"],[953,"CDISCPILOT01","701","1317","4","PSYLLIUM HYDROPHILIC MUCILLOID","UNCODED","PROPHYLAXIS OR NON-THERAPEUTIC USE","UNCODED",1,"TABLET","QD","ORAL","SCREENING 1","10-MAY-2014","APR-2014","","Y"],[954,"CDISCPILOT01","701","1317","4","PSYLLIUM HYDROPHILIC MUCILLOID","UNCODED","PROPHYLAXIS OR NON-THERAPEUTIC USE","UNCODED",1,"TABLET","QD","ORAL","SCREENING 2","20-MAY-2014","APR-2014","","Y"],[955,"CDISCPILOT01","701","1317","4","PSYLLIUM HYDROPHILIC MUCILLOID","UNCODED","PROPHYLAXIS OR NON-THERAPEUTIC USE","UNCODED",1,"TABLET","QD","ORAL","BASELINE","22-MAY-2014","APR-2014","","Y"],[956,"CDISCPILOT01","701","1317","4","PSYLLIUM HYDROPHILIC MUCILLOID","UNCODED","PROPHYLAXIS OR NON-THERAPEUTIC USE","UNCODED",1,"TABLET","QD","ORAL","WEEK 2","05-JUN-2014","APR-2014","","Y"],[957,"CDISCPILOT01","701","1317","4","PSYLLIUM HYDROPHILIC MUCILLOID","UNCODED","PROPHYLAXIS OR NON-THERAPEUTIC USE","UNCODED",1,"TABLET","QD","ORAL","WEEK 4","19-JUN-2014","APR-2014","","Y"],[958,"CDISCPILOT01","701","1317","4","PSYLLIUM HYDROPHILIC MUCILLOID","UNCODED","PROPHYLAXIS OR NON-THERAPEUTIC USE","UNCODED",1,"TABLET","QD","ORAL","AMBUL ECG REMOVAL","21-JUN-2014","APR-2014","","Y"],[959,"CDISCPILOT01","701","1317","4","PSYLLIUM HYDROPHILIC MUCILLOID","UNCODED","PROPHYLAXIS OR NON-THERAPEUTIC USE","UNCODED",1,"TABLET","QD","ORAL","WEEK 6","03-JUL-2014","APR-2014","","Y"],[960,"CDISCPILOT01","701","1317","4","PSYLLIUM HYDROPHILIC MUCILLOID","UNCODED","PROPHYLAXIS OR NON-THERAPEUTIC USE","UNCODED",1,"TABLET","QD","ORAL","WEEK 8","22-JUL-2014","APR-2014","","Y"],[961,"CDISCPILOT01","701","1317","4","PSYLLIUM HYDROPHILIC MUCILLOID","UNCODED","PROPHYLAXIS OR NON-THERAPEUTIC USE","UNCODED",1,"TABLET","QD","ORAL","WEEK 12","15-AUG-2014","APR-2014","","Y"],[962,"CDISCPILOT01","701","1317","4","PSYLLIUM HYDROPHILIC MUCILLOID","UNCODED","PROPHYLAXIS OR NON-THERAPEUTIC USE","UNCODED",1,"TABLET","QD","ORAL","WEEK 16","11-SEP-2014","APR-2014","","Y"],[963,"CDISCPILOT01","701","1317","4","PSYLLIUM HYDROPHILIC MUCILLOID","UNCODED","PROPHYLAXIS OR NON-THERAPEUTIC USE","UNCODED",1,"TABLET","QD","ORAL","WEEK 20","09-OCT-2014","APR-2014","","Y"],[964,"CDISCPILOT01","701","1317","4","PSYLLIUM HYDROPHILIC MUCILLOID","UNCODED","PROPHYLAXIS OR NON-THERAPEUTIC USE","UNCODED",1,"TABLET","QD","ORAL","WEEK 24","06-NOV-2014","APR-2014","","Y"],[965,"CDISCPILOT01","701","1317","4","PSYLLIUM HYDROPHILIC MUCILLOID","UNCODED","PROPHYLAXIS OR NON-THERAPEUTIC USE","UNCODED",1,"TABLET","QD","ORAL","WEEK 26","20-NOV-2014","APR-2014","","Y"],[966,"CDISCPILOT01","701","1317","5","TUMS","UNCODED","","UNCODED",1,"TABLET","PRN","ORAL","SCREENING 1","10-MAY-2014","2012","","Y"],[967,"CDISCPILOT01","701","1317","5","TUMS","UNCODED","","UNCODED",1,"TABLET","PRN","ORAL","SCREENING 2","20-MAY-2014","2012","","Y"],[968,"CDISCPILOT01","701","1317","5","TUMS","UNCODED","","UNCODED",1,"TABLET","PRN","ORAL","BASELINE","22-MAY-2014","2012","","Y"],[969,"CDISCPILOT01","701","1317","5","TUMS","UNCODED","","UNCODED",1,"TABLET","PRN","ORAL","WEEK 2","05-JUN-2014","2012","","Y"],[970,"CDISCPILOT01","701","1317","5","TUMS","UNCODED","","UNCODED",1,"TABLET","PRN","ORAL","WEEK 4","19-JUN-2014","2012","","Y"],[971,"CDISCPILOT01","701","1317","5","TUMS","UNCODED","","UNCODED",1,"TABLET","PRN","ORAL","AMBUL ECG REMOVAL","21-JUN-2014","2012","","Y"],[972,"CDISCPILOT01","701","1317","5","TUMS","UNCODED","","UNCODED",1,"TABLET","PRN","ORAL","WEEK 6","03-JUL-2014","2012","","Y"],[973,"CDISCPILOT01","701","1317","5","TUMS","UNCODED","","UNCODED",1,"TABLET","PRN","ORAL","WEEK 8","22-JUL-2014","2012","","Y"],[974,"CDISCPILOT01","701","1317","5","TUMS","UNCODED","","UNCODED",1,"TABLET","PRN","ORAL","WEEK 12","15-AUG-2014","2012","","Y"],[975,"CDISCPILOT01","701","1317","5","TUMS","UNCODED","","UNCODED",1,"TABLET","PRN","ORAL","WEEK 16","11-SEP-2014","2012","","Y"],[976,"CDISCPILOT01","701","1317","5","TUMS","UNCODED","","UNCODED",1,"TABLET","PRN","ORAL","WEEK 20","09-OCT-2014","2012","","Y"],[977,"CDISCPILOT01","701","1317","5","TUMS","UNCODED","","UNCODED",1,"TABLET","PRN","ORAL","WEEK 24","06-NOV-2014","2012","","Y"],[978,"CDISCPILOT01","701","1317","5","TUMS","UNCODED","","UNCODED",1,"TABLET","PRN","ORAL","WEEK 26","20-NOV-2014","2012","","Y"],[979,"CDISCPILOT01","701","1317","6","VITAMIN E","UNCODED","PROPHYLAXIS OR NON-THERAPEUTIC USE","UNCODED",400,"IU","QD","ORAL","SCREENING 1","10-MAY-2014","2009","","Y"],[980,"CDISCPILOT01","701","1317","6","VITAMIN E","UNCODED","PROPHYLAXIS OR NON-THERAPEUTIC USE","UNCODED",400,"IU","QD","ORAL","SCREENING 2","20-MAY-2014","2009","","Y"],[981,"CDISCPILOT01","701","1317","6","VITAMIN E","UNCODED","PROPHYLAXIS OR NON-THERAPEUTIC USE","UNCODED",400,"IU","QD","ORAL","BASELINE","22-MAY-2014","2009","","Y"],[982,"CDISCPILOT01","701","1317","6","VITAMIN E","UNCODED","PROPHYLAXIS OR NON-THERAPEUTIC USE","UNCODED",400,"IU","QD","ORAL","WEEK 2","05-JUN-2014","2009","","Y"],[983,"CDISCPILOT01","701","1317","6","VITAMIN E","UNCODED","PROPHYLAXIS OR NON-THERAPEUTIC USE","UNCODED",400,"IU","QD","ORAL","WEEK 4","19-JUN-2014","2009","","Y"],[984,"CDISCPILOT01","701","1317","6","VITAMIN E","UNCODED","PROPHYLAXIS OR NON-THERAPEUTIC USE","UNCODED",400,"IU","QD","ORAL","AMBUL ECG REMOVAL","21-JUN-2014","2009","","Y"],[985,"CDISCPILOT01","701","1317","6","VITAMIN E","UNCODED","PROPHYLAXIS OR NON-THERAPEUTIC USE","UNCODED",400,"IU","QD","ORAL","WEEK 6","03-JUL-2014","2009","","Y"],[986,"CDISCPILOT01","701","1317","6","VITAMIN E","UNCODED","PROPHYLAXIS OR NON-THERAPEUTIC USE","UNCODED",400,"IU","QD","ORAL","WEEK 8","22-JUL-2014","2009","","Y"],[987,"CDISCPILOT01","701","1317","6","VITAMIN E","UNCODED","PROPHYLAXIS OR NON-THERAPEUTIC USE","UNCODED",400,"IU","QD","ORAL","WEEK 12","15-AUG-2014","2009","","Y"],[988,"CDISCPILOT01","701","1317","6","VITAMIN E","UNCODED","PROPHYLAXIS OR NON-THERAPEUTIC USE","UNCODED",400,"IU","QD","ORAL","WEEK 16","11-SEP-2014","2009","","Y"],[989,"CDISCPILOT01","701","1317","6","VITAMIN E","UNCODED","PROPHYLAXIS OR NON-THERAPEUTIC USE","UNCODED",400,"IU","QD","ORAL","WEEK 20","09-OCT-2014","2009","","Y"],[990,"CDISCPILOT01","701","1317","6","VITAMIN E","UNCODED","PROPHYLAXIS OR NON-THERAPEUTIC USE","UNCODED",400,"IU","QD","ORAL","WEEK 24","06-NOV-2014","2009","","Y"],[991,"CDISCPILOT01","701","1317","6","VITAMIN E","UNCODED","PROPHYLAXIS OR NON-THERAPEUTIC USE","UNCODED",400,"IU","QD","ORAL","WEEK 26","20-NOV-2014","2009","","Y"],[992,"CDISCPILOT01","701","1317","7","HYDROCORTISONE","HYDROCORTISONE","","SYSTEMIC HORMONAL PREPARATIONS, EXCL.",1,"VIAL","PRN","TOPICAL","WEEK 6","03-JUL-2014","03-JUL-2014","","Y"],[993,"CDISCPILOT01","701","1317","7","HYDROCORTISONE","HYDROCORTISONE","","SYSTEMIC HORMONAL PREPARATIONS, EXCL.",1,"VIAL","PRN","TOPICAL","WEEK 8","22-JUL-2014","03-JUL-2014","","Y"],[994,"CDISCPILOT01","701","1317","7","HYDROCORTISONE","HYDROCORTISONE","","SYSTEMIC HORMONAL PREPARATIONS, EXCL.",1,"VIAL","PRN","TOPICAL","WEEK 12","15-AUG-2014","03-JUL-2014","","Y"],[995,"CDISCPILOT01","701","1317","7","HYDROCORTISONE","HYDROCORTISONE","","SYSTEMIC HORMONAL PREPARATIONS, EXCL.",1,"VIAL","PRN","TOPICAL","WEEK 16","11-SEP-2014","03-JUL-2014","","Y"],[996,"CDISCPILOT01","701","1317","7","HYDROCORTISONE","HYDROCORTISONE","","SYSTEMIC HORMONAL PREPARATIONS, EXCL.",1,"VIAL","PRN","TOPICAL","WEEK 20","09-OCT-2014","03-JUL-2014","","Y"],[997,"CDISCPILOT01","701","1317","7","HYDROCORTISONE","HYDROCORTISONE","","SYSTEMIC HORMONAL PREPARATIONS, EXCL.",1,"VIAL","PRN","TOPICAL","WEEK 24","06-NOV-2014","03-JUL-2014","","Y"],[998,"CDISCPILOT01","701","1317","7","HYDROCORTISONE","HYDROCORTISONE","","SYSTEMIC HORMONAL PREPARATIONS, EXCL.",1,"VIAL","PRN","TOPICAL","WEEK 26","20-NOV-2014","03-JUL-2014","","Y"],[999,"CDISCPILOT01","701","1324","1","HYDROCORTISONE","HYDROCORTISONE","","SYSTEMIC HORMONAL PREPARATIONS, EXCL.",1,"VIAL","QD","TOPICAL","WEEK 16","22-JAN-2013","26-DEC-2012","30-DEC-2012","N"],[1000,"CDISCPILOT01","701","1324","2","HYDROCORTISONE","HYDROCORTISONE","","SYSTEMIC HORMONAL PREPARATIONS, EXCL.",1,"VIAL","QD","TOPICAL","WEEK 16","22-JAN-2013","11-JAN-2013","15-JAN-2013","N"],[1001,"CDISCPILOT01","701","1324","3","HYDROCORTISONE","HYDROCORTISONE","","SYSTEMIC HORMONAL PREPARATIONS, EXCL.",1,"VIAL","PRN","TOPICAL","WEEK 24","19-MAR-2013","21-FEB-2013","","Y"],[1002,"CDISCPILOT01","701","1324","3","HYDROCORTISONE","HYDROCORTISONE","","SYSTEMIC HORMONAL PREPARATIONS, EXCL.",1,"VIAL","PRN","TOPICAL","WEEK 26","02-APR-2013","21-FEB-2013","","Y"],[1003,"CDISCPILOT01","701","1341","1","MULTIVITAMIN","UNCODED","PROPHYLAXIS OR NON-THERAPEUTIC USE","UNCODED",null,"TABLET","QD","ORAL","SCREENING 1","22-DEC-2012","1971","","Y"],[1004,"CDISCPILOT01","701","1341","1","MULTIVITAMIN","UNCODED","PROPHYLAXIS OR NON-THERAPEUTIC USE","UNCODED",null,"TABLET","QD","ORAL","SCREENING 2","03-JAN-2013","1971","","Y"],[1005,"CDISCPILOT01","701","1341","1","MULTIVITAMIN","UNCODED","PROPHYLAXIS OR NON-THERAPEUTIC USE","UNCODED",null,"TABLET","QD","ORAL","BASELINE","05-JAN-2013","1971","","Y"],[1006,"CDISCPILOT01","701","1341","1","MULTIVITAMIN","UNCODED","PROPHYLAXIS OR NON-THERAPEUTIC USE","UNCODED",null,"TABLET","QD","ORAL","WEEK 2","18-JAN-2013","1971","","Y"],[1007,"CDISCPILOT01","701","1341","1","MULTIVITAMIN","UNCODED","PROPHYLAXIS OR NON-THERAPEUTIC USE","UNCODED",null,"TABLET","QD","ORAL","WEEK 4","07-FEB-2013","1971","","Y"],[1008,"CDISCPILOT01","701","1341","1","MULTIVITAMIN","UNCODED","PROPHYLAXIS OR NON-THERAPEUTIC USE","UNCODED",null,"TABLET","QD","ORAL","AE FOLLOW-UP","21-FEB-2013","1971","","Y"],[1009,"CDISCPILOT01","701","1341","2","HYDROCORTISONE","HYDROCORTISONE","","SYSTEMIC HORMONAL PREPARATIONS, EXCL.",1,"VIAL","PRN","TOPICAL","WEEK 4","07-FEB-2013","26-JAN-2013","30-JAN-2013","N"],[1010,"CDISCPILOT01","701","1345","1","VITAMIN C","UNCODED","PROPHYLAXIS OR NON-THERAPEUTIC USE","UNCODED",500,"mg","QD","ORAL","SCREENING 1","01-OCT-2013","1983","","Y"],[1011,"CDISCPILOT01","701","1345","1","VITAMIN C","UNCODED","PROPHYLAXIS OR NON-THERAPEUTIC USE","UNCODED",500,"mg","QD","ORAL","SCREENING 2","06-OCT-2013","1983","","Y"],[1012,"CDISCPILOT01","701","1345","1","VITAMIN C","UNCODED","PROPHYLAXIS OR NON-THERAPEUTIC USE","UNCODED",500,"mg","QD","ORAL","BASELINE","08-OCT-2013","1983","","Y"],[1013,"CDISCPILOT01","701","1345","1","VITAMIN C","UNCODED","PROPHYLAXIS OR NON-THERAPEUTIC USE","UNCODED",500,"mg","QD","ORAL","WEEK 2","24-OCT-2013","1983","","Y"],[1014,"CDISCPILOT01","701","1345","1","VITAMIN C","UNCODED","PROPHYLAXIS OR NON-THERAPEUTIC USE","UNCODED",500,"mg","QD","ORAL","WEEK 4","08-NOV-2013","1983","","Y"],[1015,"CDISCPILOT01","701","1345","1","VITAMIN C","UNCODED","PROPHYLAXIS OR NON-THERAPEUTIC USE","UNCODED",500,"mg","QD","ORAL","AMBUL ECG REMOVAL","10-NOV-2013","1983","","Y"],[1016,"CDISCPILOT01","701","1345","1","VITAMIN C","UNCODED","PROPHYLAXIS OR NON-THERAPEUTIC USE","UNCODED",500,"mg","QD","ORAL","WEEK 6","19-NOV-2013","1983","","Y"],[1017,"CDISCPILOT01","701","1345","1","VITAMIN C","UNCODED","PROPHYLAXIS OR NON-THERAPEUTIC USE","UNCODED",500,"mg","QD","ORAL","WEEK 8","03-DEC-2013","1983","","Y"],[1018,"CDISCPILOT01","701","1345","1","VITAMIN C","UNCODED","PROPHYLAXIS OR NON-THERAPEUTIC USE","UNCODED",500,"mg","QD","ORAL","WEEK 12","31-DEC-2013","1983","","Y"],[1019,"CDISCPILOT01","701","1345","1","VITAMIN C","UNCODED","PROPHYLAXIS OR NON-THERAPEUTIC USE","UNCODED",500,"mg","QD","ORAL","WEEK 16","27-JAN-2014","1983","","Y"],[1020,"CDISCPILOT01","701","1345","1","VITAMIN C","UNCODED","PROPHYLAXIS OR NON-THERAPEUTIC USE","UNCODED",500,"mg","QD","ORAL","WEEK 20","25-FEB-2014","1983","","Y"],[1021,"CDISCPILOT01","701","1345","1","VITAMIN C","UNCODED","PROPHYLAXIS OR NON-THERAPEUTIC USE","UNCODED",500,"mg","QD","ORAL","WEEK 24","18-MAR-2014","1983","","Y"],[1022,"CDISCPILOT01","701","1345","2","VITAMIN E","UNCODED","PROPHYLAXIS OR NON-THERAPEUTIC USE","UNCODED",400,"IU","QD","ORAL","SCREENING 1","01-OCT-2013","1983","","Y"],[1023,"CDISCPILOT01","701","1345","2","VITAMIN E","UNCODED","PROPHYLAXIS OR NON-THERAPEUTIC USE","UNCODED",400,"IU","QD","ORAL","SCREENING 2","06-OCT-2013","1983","","Y"],[1024,"CDISCPILOT01","701","1345","2","VITAMIN E","UNCODED","PROPHYLAXIS OR NON-THERAPEUTIC USE","UNCODED",400,"IU","QD","ORAL","BASELINE","08-OCT-2013","1983","","Y"],[1025,"CDISCPILOT01","701","1345","2","VITAMIN E","UNCODED","PROPHYLAXIS OR NON-THERAPEUTIC USE","UNCODED",400,"IU","QD","ORAL","WEEK 2","24-OCT-2013","1983","","Y"],[1026,"CDISCPILOT01","701","1345","2","VITAMIN E","UNCODED","PROPHYLAXIS OR NON-THERAPEUTIC USE","UNCODED",400,"IU","QD","ORAL","WEEK 4","08-NOV-2013","1983","","Y"],[1027,"CDISCPILOT01","701","1345","2","VITAMIN E","UNCODED","PROPHYLAXIS OR NON-THERAPEUTIC USE","UNCODED",400,"IU","QD","ORAL","AMBUL ECG REMOVAL","10-NOV-2013","1983","","Y"],[1028,"CDISCPILOT01","701","1345","2","VITAMIN E","UNCODED","PROPHYLAXIS OR NON-THERAPEUTIC USE","UNCODED",400,"IU","QD","ORAL","WEEK 6","19-NOV-2013","1983","","Y"],[1029,"CDISCPILOT01","701","1345","2","VITAMIN E","UNCODED","PROPHYLAXIS OR NON-THERAPEUTIC USE","UNCODED",400,"IU","QD","ORAL","WEEK 8","03-DEC-2013","1983","","Y"],[1030,"CDISCPILOT01","701","1345","2","VITAMIN E","UNCODED","PROPHYLAXIS OR NON-THERAPEUTIC USE","UNCODED",400,"IU","QD","ORAL","WEEK 12","31-DEC-2013","1983","","Y"],[1031,"CDISCPILOT01","701","1345","2","VITAMIN E","UNCODED","PROPHYLAXIS OR NON-THERAPEUTIC USE","UNCODED",400,"IU","QD","ORAL","WEEK 16","27-JAN-2014","1983","","Y"],[1032,"CDISCPILOT01","701","1345","2","VITAMIN E","UNCODED","PROPHYLAXIS OR NON-THERAPEUTIC USE","UNCODED",400,"IU","QD","ORAL","WEEK 20","25-FEB-2014","1983","","Y"],[1033,"CDISCPILOT01","701","1345","2","VITAMIN E","UNCODED","PROPHYLAXIS OR NON-THERAPEUTIC USE","UNCODED",400,"IU","QD","ORAL","WEEK 24","18-MAR-2014","1983","","Y"],[1034,"CDISCPILOT01","701","1360","1","DIPROLENE CREAM","UNCODED","","UNCODED",1,"VIAL","QD","TOPICAL","SCREENING 1","24-JUL-2013","1986","","Y"],[1035,"CDISCPILOT01","701","1360","1","DIPROLENE CREAM","UNCODED","","UNCODED",1,"VIAL","QD","TOPICAL","SCREENING 2","29-JUL-2013","1986","","Y"],[1036,"CDISCPILOT01","701","1360","1","DIPROLENE CREAM","UNCODED","","UNCODED",1,"VIAL","QD","TOPICAL","BASELINE","31-JUL-2013","1986","","Y"],[1037,"CDISCPILOT01","701","1360","1","DIPROLENE CREAM","UNCODED","","UNCODED",1,"VIAL","QD","TOPICAL","WEEK 2","14-AUG-2013","1986","","Y"],[1038,"CDISCPILOT01","701","1360","1","DIPROLENE CREAM","UNCODED","","UNCODED",1,"VIAL","QD","TOPICAL","AE FOLLOW-UP","09-SEP-2013","1986","","Y"],[1039,"CDISCPILOT01","701","1360","1","DIPROLENE CREAM","UNCODED","","UNCODED",1,"VIAL","QD","TOPICAL","RETRIEVAL","11-FEB-2014","1986","","Y"],[1040,"CDISCPILOT01","701","1360","2","TYLENOL EXTRA STRENGTH","UNCODED","","UNCODED",2,"TABLET","PRN","ORAL","SCREENING 1","24-JUL-2013","1996","","Y"],[1041,"CDISCPILOT01","701","1360","2","TYLENOL EXTRA STRENGTH","UNCODED","","UNCODED",2,"TABLET","PRN","ORAL","SCREENING 2","29-JUL-2013","1996","","Y"],[1042,"CDISCPILOT01","701","1360","2","TYLENOL EXTRA STRENGTH","UNCODED","","UNCODED",2,"TABLET","PRN","ORAL","BASELINE","31-JUL-2013","1996","","Y"],[1043,"CDISCPILOT01","701","1360","2","TYLENOL EXTRA STRENGTH","UNCODED","","UNCODED",2,"TABLET","PRN","ORAL","WEEK 2","14-AUG-2013","1996","","Y"],[1044,"CDISCPILOT01","701","1360","2","TYLENOL EXTRA STRENGTH","UNCODED","","UNCODED",2,"TABLET","PRN","ORAL","AE FOLLOW-UP","09-SEP-2013","1996","","Y"],[1045,"CDISCPILOT01","701","1360","2","TYLENOL EXTRA STRENGTH","UNCODED","","UNCODED",2,"TABLET","PRN","ORAL","RETRIEVAL","11-FEB-2014","1996","","Y"],[1046,"CDISCPILOT01","701","1360","3","HYDROCORTISONE, TOPICAL","UNCODED","","UNCODED",1,"VIAL","PRN","TOPICAL","WEEK 2","14-AUG-2013","04-AUG-2013","12-AUG-2013","N"],[1047,"CDISCPILOT01","701","1360","4","GENERAL ANESTHESIA","UNCODED","PROPHYLAXIS OR NON-THERAPEUTIC USE","UNCODED",null,"","ONCE","INTRAVENOUS","AE FOLLOW-UP","09-SEP-2013","27-AUG-2013","27-AUG-2013","N"],[1048,"CDISCPILOT01","701","1360","5","HYDROCODONE","UNCODED","PROPHYLAXIS OR NON-THERAPEUTIC USE","UNCODED",1,"TABLET","Q3H","ORAL","AE FOLLOW-UP","09-SEP-2013","27-AUG-2013","27-SEP-2013","N"],[1049,"CDISCPILOT01","701","1360","5","HYDROCODONE","UNCODED","PROPHYLAXIS OR NON-THERAPEUTIC USE","UNCODED",1,"TABLET","Q3H","ORAL","RETRIEVAL","11-FEB-2014","27-AUG-2013","27-SEP-2013","N"],[1050,"CDISCPILOT01","701","1363","1","ASA","UNCODED","","UNCODED",650,"mg","PRN","ORAL","SCREENING 1","20-MAY-2013","1986","","Y"],[1051,"CDISCPILOT01","701","1363","1","ASA","UNCODED","","UNCODED",650,"mg","PRN","ORAL","SCREENING 2","28-MAY-2013","1986","","Y"],[1052,"CDISCPILOT01","701","1363","1","ASA","UNCODED","","UNCODED",650,"mg","PRN","ORAL","BASELINE","30-MAY-2013","1986","","Y"],[1053,"CDISCPILOT01","701","1363","1","ASA","UNCODED","","UNCODED",650,"mg","PRN","ORAL","WEEK 2","12-JUN-2013","1986","","Y"],[1054,"CDISCPILOT01","701","1363","1","ASA","UNCODED","","UNCODED",650,"mg","PRN","ORAL","WEEK 4","25-JUN-2013","1986","","Y"],[1055,"CDISCPILOT01","701","1363","1","ASA","UNCODED","","UNCODED",650,"mg","PRN","ORAL","AMBUL ECG REMOVAL","27-JUN-2013","1986","","Y"],[1056,"CDISCPILOT01","701","1363","1","ASA","UNCODED","","UNCODED",650,"mg","PRN","ORAL","WEEK 6","10-JUL-2013","1986","","Y"],[1057,"CDISCPILOT01","701","1363","1","ASA","UNCODED","","UNCODED",650,"mg","PRN","ORAL","WEEK 8","24-JUL-2013","1986","","Y"],[1058,"CDISCPILOT01","701","1363","1","ASA","UNCODED","","UNCODED",650,"mg","PRN","ORAL","WEEK 12","21-AUG-2013","1986","","Y"],[1059,"CDISCPILOT01","701","1363","1","ASA","UNCODED","","UNCODED",650,"mg","PRN","ORAL","WEEK 16","18-SEP-2013","1986","","Y"],[1060,"CDISCPILOT01","701","1363","1","ASA","UNCODED","","UNCODED",650,"mg","PRN","ORAL","WEEK 20","14-OCT-2013","1986","","Y"],[1061,"CDISCPILOT01","701","1363","1","ASA","UNCODED","","UNCODED",650,"mg","PRN","ORAL","WEEK 24","13-NOV-2013","1986","","Y"],[1062,"CDISCPILOT01","701","1363","1","ASA","UNCODED","","UNCODED",650,"mg","PRN","ORAL","WEEK 26","27-NOV-2013","1986","","Y"],[1063,"CDISCPILOT01","701","1363","2","MAALOX","ALGELDRATE","","ALIMENTARY TRACT AND METABOLISM",3,"tsp","PRN","ORAL","SCREENING 1","20-MAY-2013","2011","","Y"],[1064,"CDISCPILOT01","701","1363","2","MAALOX","ALGELDRATE","","ALIMENTARY TRACT AND METABOLISM",3,"tsp","PRN","ORAL","SCREENING 2","28-MAY-2013","2011","","Y"],[1065,"CDISCPILOT01","701","1363","2","MAALOX","ALGELDRATE","","ALIMENTARY TRACT AND METABOLISM",3,"tsp","PRN","ORAL","BASELINE","30-MAY-2013","2011","","Y"],[1066,"CDISCPILOT01","701","1363","2","MAALOX","ALGELDRATE","","ALIMENTARY TRACT AND METABOLISM",3,"tsp","PRN","ORAL","WEEK 2","12-JUN-2013","2011","","Y"],[1067,"CDISCPILOT01","701","1363","2","MAALOX","ALGELDRATE","","ALIMENTARY TRACT AND METABOLISM",3,"tsp","PRN","ORAL","WEEK 4","25-JUN-2013","2011","","Y"],[1068,"CDISCPILOT01","701","1363","2","MAALOX","ALGELDRATE","","ALIMENTARY TRACT AND METABOLISM",3,"tsp","PRN","ORAL","AMBUL ECG REMOVAL","27-JUN-2013","2011","","Y"],[1069,"CDISCPILOT01","701","1363","2","MAALOX","ALGELDRATE","","ALIMENTARY TRACT AND METABOLISM",3,"tsp","PRN","ORAL","WEEK 6","10-JUL-2013","2011","","Y"],[1070,"CDISCPILOT01","701","1363","2","MAALOX","ALGELDRATE","","ALIMENTARY TRACT AND METABOLISM",3,"tsp","PRN","ORAL","WEEK 8","24-JUL-2013","2011","","Y"],[1071,"CDISCPILOT01","701","1363","2","MAALOX","ALGELDRATE","","ALIMENTARY TRACT AND METABOLISM",3,"tsp","PRN","ORAL","WEEK 12","21-AUG-2013","2011","","Y"],[1072,"CDISCPILOT01","701","1363","2","MAALOX","ALGELDRATE","","ALIMENTARY TRACT AND METABOLISM",3,"tsp","PRN","ORAL","WEEK 16","18-SEP-2013","2011","","Y"],[1073,"CDISCPILOT01","701","1363","2","MAALOX","ALGELDRATE","","ALIMENTARY TRACT AND METABOLISM",3,"tsp","PRN","ORAL","WEEK 20","14-OCT-2013","2011","","Y"],[1074,"CDISCPILOT01","701","1363","2","MAALOX","ALGELDRATE","","ALIMENTARY TRACT AND METABOLISM",3,"tsp","PRN","ORAL","WEEK 24","13-NOV-2013","2011","","Y"],[1075,"CDISCPILOT01","701","1363","2","MAALOX","ALGELDRATE","","ALIMENTARY TRACT AND METABOLISM",3,"tsp","PRN","ORAL","WEEK 26","27-NOV-2013","2011","","Y"],[1076,"CDISCPILOT01","701","1363","3","MULTIVITAMIN","UNCODED","PROPHYLAXIS OR NON-THERAPEUTIC USE","UNCODED",1,"TABLET","QD","ORAL","WEEK 16","18-SEP-2013","22-AUG-2013","","Y"],[1077,"CDISCPILOT01","701","1363","3","MULTIVITAMIN","UNCODED","PROPHYLAXIS OR NON-THERAPEUTIC USE","UNCODED",1,"TABLET","QD","ORAL","WEEK 20","14-OCT-2013","22-AUG-2013","","Y"],[1078,"CDISCPILOT01","701","1363","3","MULTIVITAMIN","UNCODED","PROPHYLAXIS OR NON-THERAPEUTIC USE","UNCODED",1,"TABLET","QD","ORAL","WEEK 24","13-NOV-2013","22-AUG-2013","","Y"],[1079,"CDISCPILOT01","701","1363","3","MULTIVITAMIN","UNCODED","PROPHYLAXIS OR NON-THERAPEUTIC USE","UNCODED",1,"TABLET","QD","ORAL","WEEK 26","27-NOV-2013","22-AUG-2013","","Y"],[1080,"CDISCPILOT01","701","1363","4","HYDROCORTISONE","HYDROCORTISONE","","SYSTEMIC HORMONAL PREPARATIONS, EXCL.",1,"VIAL","QD","TOPICAL","WEEK 20","14-OCT-2013","19-SEP-2013","","Y"],[1081,"CDISCPILOT01","701","1363","4","HYDROCORTISONE","HYDROCORTISONE","","SYSTEMIC HORMONAL PREPARATIONS, EXCL.",1,"VIAL","QD","TOPICAL","WEEK 24","13-NOV-2013","19-SEP-2013","","Y"],[1082,"CDISCPILOT01","701","1363","4","HYDROCORTISONE","HYDROCORTISONE","","SYSTEMIC HORMONAL PREPARATIONS, EXCL.",1,"VIAL","QD","TOPICAL","WEEK 26","27-NOV-2013","19-SEP-2013","","Y"],[1083,"CDISCPILOT01","701","1363","5","ICY HOT","UNCODED","","UNCODED",1,"VIAL","PRN","TOPICAL","WEEK 20","14-OCT-2013","13-OCT-2013","","Y"],[1084,"CDISCPILOT01","701","1363","5","ICY HOT","UNCODED","","UNCODED",1,"VIAL","PRN","TOPICAL","WEEK 24","13-NOV-2013","13-OCT-2013","","Y"],[1085,"CDISCPILOT01","701","1363","5","ICY HOT","UNCODED","","UNCODED",1,"VIAL","PRN","TOPICAL","WEEK 26","27-NOV-2013","13-OCT-2013","","Y"],[1086,"CDISCPILOT01","701","1363","6","MOTRIN","UNCODED","","UNCODED",400,"mg","PRN","ORAL","WEEK 20","14-OCT-2013","01-OCT-2013","01-OCT-2013","N"],[1087,"CDISCPILOT01","701","1383","1","CENTRUM SILVER","UNCODED","PROPHYLAXIS OR NON-THERAPEUTIC USE","UNCODED",1,"TABLET","QD","ORAL","SCREENING 1","22-JAN-2013","MAR-2012","","Y"],[1088,"CDISCPILOT01","701","1383","1","CENTRUM SILVER","UNCODED","PROPHYLAXIS OR NON-THERAPEUTIC USE","UNCODED",1,"TABLET","QD","ORAL","SCREENING 2","02-FEB-2013","MAR-2012","","Y"],[1089,"CDISCPILOT01","701","1383","1","CENTRUM SILVER","UNCODED","PROPHYLAXIS OR NON-THERAPEUTIC USE","UNCODED",1,"TABLET","QD","ORAL","BASELINE","04-FEB-2013","MAR-2012","","Y"],[1090,"CDISCPILOT01","701","1383","1","CENTRUM SILVER","UNCODED","PROPHYLAXIS OR NON-THERAPEUTIC USE","UNCODED",1,"TABLET","QD","ORAL","WEEK 2","19-FEB-2013","MAR-2012","","Y"],[1091,"CDISCPILOT01","701","1383","1","CENTRUM SILVER","UNCODED","PROPHYLAXIS OR NON-THERAPEUTIC USE","UNCODED",1,"TABLET","QD","ORAL","WEEK 4","12-MAR-2013","MAR-2012","","Y"],[1092,"CDISCPILOT01","701","1383","1","CENTRUM SILVER","UNCODED","PROPHYLAXIS OR NON-THERAPEUTIC USE","UNCODED",1,"TABLET","QD","ORAL","AMBUL ECG REMOVAL","14-MAR-2013","MAR-2012","","Y"],[1093,"CDISCPILOT01","701","1383","1","CENTRUM SILVER","UNCODED","PROPHYLAXIS OR NON-THERAPEUTIC USE","UNCODED",1,"TABLET","QD","ORAL","WEEK 6","19-MAR-2013","MAR-2012","","Y"],[1094,"CDISCPILOT01","701","1383","1","CENTRUM SILVER","UNCODED","PROPHYLAXIS OR NON-THERAPEUTIC USE","UNCODED",1,"TABLET","QD","ORAL","WEEK 8","02-APR-2013","MAR-2012","","Y"],[1095,"CDISCPILOT01","701","1383","1","CENTRUM SILVER","UNCODED","PROPHYLAXIS OR NON-THERAPEUTIC USE","UNCODED",1,"TABLET","QD","ORAL","WEEK 12","30-APR-2013","MAR-2012","","Y"],[1096,"CDISCPILOT01","701","1383","1","CENTRUM SILVER","UNCODED","PROPHYLAXIS OR NON-THERAPEUTIC USE","UNCODED",1,"TABLET","QD","ORAL","WEEK 16","30-MAY-2013","MAR-2012","","Y"],[1097,"CDISCPILOT01","701","1383","1","CENTRUM SILVER","UNCODED","PROPHYLAXIS OR NON-THERAPEUTIC USE","UNCODED",1,"TABLET","QD","ORAL","WEEK 20","25-JUN-2013","MAR-2012","","Y"],[1098,"CDISCPILOT01","701","1383","1","CENTRUM SILVER","UNCODED","PROPHYLAXIS OR NON-THERAPEUTIC USE","UNCODED",1,"TABLET","QD","ORAL","WEEK 24","30-JUL-2013","MAR-2012","","Y"],[1099,"CDISCPILOT01","701","1383","1","CENTRUM SILVER","UNCODED","PROPHYLAXIS OR NON-THERAPEUTIC USE","UNCODED",1,"TABLET","QD","ORAL","WEEK 26","06-AUG-2013","MAR-2012","","Y"],[1100,"CDISCPILOT01","701","1383","2","HYDROCORTISONE","HYDROCORTISONE","","SYSTEMIC HORMONAL PREPARATIONS, EXCL.",1,"VIAL","PRN","TOPICAL","WEEK 16","30-MAY-2013","14-MAY-2013","","Y"],[1101,"CDISCPILOT01","701","1383","2","HYDROCORTISONE","HYDROCORTISONE","","SYSTEMIC HORMONAL PREPARATIONS, EXCL.",1,"VIAL","PRN","TOPICAL","WEEK 20","25-JUN-2013","14-MAY-2013","","Y"],[1102,"CDISCPILOT01","701","1383","2","HYDROCORTISONE","HYDROCORTISONE","","SYSTEMIC HORMONAL PREPARATIONS, EXCL.",1,"VIAL","PRN","TOPICAL","WEEK 24","30-JUL-2013","14-MAY-2013","","Y"],[1103,"CDISCPILOT01","701","1383","2","HYDROCORTISONE","HYDROCORTISONE","","SYSTEMIC HORMONAL PREPARATIONS, EXCL.",1,"VIAL","PRN","TOPICAL","WEEK 26","06-AUG-2013","14-MAY-2013","","Y"],[1104,"CDISCPILOT01","701","1383","3","PROMETHAZINE HCL W/CODEINE","UNCODED","","UNCODED",2,"tsp","Q6H","ORAL","WEEK 24","30-JUL-2013","19-JUL-2013","25-JUL-2013","N"],[1105,"CDISCPILOT01","701","1383","4","CEPHALEXIN","UNCODED","","UNCODED",500,"mg","QID","ORAL","WEEK 24","30-JUL-2013","19-JUL-2013","01-AUG-2013","N"],[1106,"CDISCPILOT01","701","1383","4","CEPHALEXIN","UNCODED","","UNCODED",500,"mg","QID","ORAL","WEEK 26","06-AUG-2013","19-JUL-2013","01-AUG-2013","N"],[1107,"CDISCPILOT01","701","1387","1","ECOTRIN","UNCODED","","UNCODED",1,"TABLET","PRN","ORAL","SCREENING 1","23-FEB-2014","2012","","Y"],[1108,"CDISCPILOT01","701","1387","1","ECOTRIN","UNCODED","","UNCODED",1,"TABLET","PRN","ORAL","SCREENING 2","08-MAR-2014","2012","","Y"],[1109,"CDISCPILOT01","701","1387","1","ECOTRIN","UNCODED","","UNCODED",1,"TABLET","PRN","ORAL","BASELINE","12-MAR-2014","2012","","Y"],[1110,"CDISCPILOT01","701","1387","1","ECOTRIN","UNCODED","","UNCODED",1,"TABLET","PRN","ORAL","WEEK 2","25-MAR-2014","2012","","Y"],[1111,"CDISCPILOT01","701","1387","1","ECOTRIN","UNCODED","","UNCODED",1,"TABLET","PRN","ORAL","RETRIEVAL","27-AUG-2014","2012","","Y"],[1112,"CDISCPILOT01","701","1392","1","HYDROCHLOROTHIAZIDE","UNCODED","","UNCODED",25,"mg","QD","ORAL","SCREENING 1","17-OCT-2012","2008","","Y"],[1113,"CDISCPILOT01","701","1392","1","HYDROCHLOROTHIAZIDE","UNCODED","","UNCODED",25,"mg","QD","ORAL","SCREENING 2","26-OCT-2012","2008","","Y"],[1114,"CDISCPILOT01","701","1392","1","HYDROCHLOROTHIAZIDE","UNCODED","","UNCODED",25,"mg","QD","ORAL","BASELINE","28-OCT-2012","2008","","Y"],[1115,"CDISCPILOT01","701","1392","1","HYDROCHLOROTHIAZIDE","UNCODED","","UNCODED",25,"mg","QD","ORAL","WEEK 2","11-NOV-2012","2008","","Y"],[1116,"CDISCPILOT01","701","1392","1","HYDROCHLOROTHIAZIDE","UNCODED","","UNCODED",25,"mg","QD","ORAL","WEEK 4","24-NOV-2012","2008","","Y"],[1117,"CDISCPILOT01","701","1392","1","HYDROCHLOROTHIAZIDE","UNCODED","","UNCODED",25,"mg","QD","ORAL","AMBUL ECG REMOVAL","26-NOV-2012","2008","","Y"],[1118,"CDISCPILOT01","701","1392","1","HYDROCHLOROTHIAZIDE","UNCODED","","UNCODED",25,"mg","QD","ORAL","WEEK 6","09-DEC-2012","2008","","Y"],[1119,"CDISCPILOT01","701","1392","1","HYDROCHLOROTHIAZIDE","UNCODED","","UNCODED",25,"mg","QD","ORAL","WEEK 8","20-DEC-2012","2008","","Y"],[1120,"CDISCPILOT01","701","1392","1","HYDROCHLOROTHIAZIDE","UNCODED","","UNCODED",25,"mg","QD","ORAL","WEEK 12","20-JAN-2013","2008","","Y"],[1121,"CDISCPILOT01","701","1392","1","HYDROCHLOROTHIAZIDE","UNCODED","","UNCODED",25,"mg","QD","ORAL","WEEK 16","17-FEB-2013","2008","","Y"],[1122,"CDISCPILOT01","701","1392","1","HYDROCHLOROTHIAZIDE","UNCODED","","UNCODED",25,"mg","QD","ORAL","WEEK 20","17-MAR-2013","2008","","Y"],[1123,"CDISCPILOT01","701","1392","1","HYDROCHLOROTHIAZIDE","UNCODED","","UNCODED",25,"mg","QD","ORAL","WEEK 24","15-APR-2013","2008","","Y"],[1124,"CDISCPILOT01","701","1392","1","HYDROCHLOROTHIAZIDE","UNCODED","","UNCODED",25,"mg","QD","ORAL","WEEK 26","28-APR-2013","2008","","Y"],[1125,"CDISCPILOT01","701","1392","2","VITAMIN D","UNCODED","PROPHYLAXIS OR NON-THERAPEUTIC USE","UNCODED",1,"TABLET","QD","ORAL","SCREENING 1","17-OCT-2012","2011","","Y"],[1126,"CDISCPILOT01","701","1392","2","VITAMIN D","UNCODED","PROPHYLAXIS OR NON-THERAPEUTIC USE","UNCODED",1,"TABLET","QD","ORAL","SCREENING 2","26-OCT-2012","2011","","Y"],[1127,"CDISCPILOT01","701","1392","2","VITAMIN D","UNCODED","PROPHYLAXIS OR NON-THERAPEUTIC USE","UNCODED",1,"TABLET","QD","ORAL","BASELINE","28-OCT-2012","2011","","Y"],[1128,"CDISCPILOT01","701","1392","2","VITAMIN D","UNCODED","PROPHYLAXIS OR NON-THERAPEUTIC USE","UNCODED",1,"TABLET","QD","ORAL","WEEK 2","11-NOV-2012","2011","","Y"],[1129,"CDISCPILOT01","701","1392","2","VITAMIN D","UNCODED","PROPHYLAXIS OR NON-THERAPEUTIC USE","UNCODED",1,"TABLET","QD","ORAL","WEEK 4","24-NOV-2012","2011","","Y"],[1130,"CDISCPILOT01","701","1392","2","VITAMIN D","UNCODED","PROPHYLAXIS OR NON-THERAPEUTIC USE","UNCODED",1,"TABLET","QD","ORAL","AMBUL ECG REMOVAL","26-NOV-2012","2011","","Y"],[1131,"CDISCPILOT01","701","1392","2","VITAMIN D","UNCODED","PROPHYLAXIS OR NON-THERAPEUTIC USE","UNCODED",1,"TABLET","QD","ORAL","WEEK 6","09-DEC-2012","2011","","Y"],[1132,"CDISCPILOT01","701","1392","2","VITAMIN D","UNCODED","PROPHYLAXIS OR NON-THERAPEUTIC USE","UNCODED",1,"TABLET","QD","ORAL","WEEK 8","20-DEC-2012","2011","","Y"],[1133,"CDISCPILOT01","701","1392","2","VITAMIN D","UNCODED","PROPHYLAXIS OR NON-THERAPEUTIC USE","UNCODED",1,"TABLET","QD","ORAL","WEEK 12","20-JAN-2013","2011","","Y"],[1134,"CDISCPILOT01","701","1392","2","VITAMIN D","UNCODED","PROPHYLAXIS OR NON-THERAPEUTIC USE","UNCODED",1,"TABLET","QD","ORAL","WEEK 16","17-FEB-2013","2011","","Y"],[1135,"CDISCPILOT01","701","1392","2","VITAMIN D","UNCODED","PROPHYLAXIS OR NON-THERAPEUTIC USE","UNCODED",1,"TABLET","QD","ORAL","WEEK 20","17-MAR-2013","2011","","Y"],[1136,"CDISCPILOT01","701","1392","2","VITAMIN D","UNCODED","PROPHYLAXIS OR NON-THERAPEUTIC USE","UNCODED",1,"TABLET","QD","ORAL","WEEK 24","15-APR-2013","2011","","Y"],[1137,"CDISCPILOT01","701","1392","2","VITAMIN D","UNCODED","PROPHYLAXIS OR NON-THERAPEUTIC USE","UNCODED",1,"TABLET","QD","ORAL","WEEK 26","28-APR-2013","2011","","Y"],[1138,"CDISCPILOT01","701","1392","3","VITAMIN E","UNCODED","PROPHYLAXIS OR NON-THERAPEUTIC USE","UNCODED",1,"TABLET","QD","ORAL","SCREENING 1","17-OCT-2012","2011","","Y"],[1139,"CDISCPILOT01","701","1392","3","VITAMIN E","UNCODED","PROPHYLAXIS OR NON-THERAPEUTIC USE","UNCODED",1,"TABLET","QD","ORAL","SCREENING 2","26-OCT-2012","2011","","Y"],[1140,"CDISCPILOT01","701","1392","3","VITAMIN E","UNCODED","PROPHYLAXIS OR NON-THERAPEUTIC USE","UNCODED",1,"TABLET","QD","ORAL","BASELINE","28-OCT-2012","2011","","Y"],[1141,"CDISCPILOT01","701","1392","3","VITAMIN E","UNCODED","PROPHYLAXIS OR NON-THERAPEUTIC USE","UNCODED",1,"TABLET","QD","ORAL","WEEK 2","11-NOV-2012","2011","","Y"],[1142,"CDISCPILOT01","701","1392","3","VITAMIN E","UNCODED","PROPHYLAXIS OR NON-THERAPEUTIC USE","UNCODED",1,"TABLET","QD","ORAL","WEEK 4","24-NOV-2012","2011","","Y"],[1143,"CDISCPILOT01","701","1392","3","VITAMIN E","UNCODED","PROPHYLAXIS OR NON-THERAPEUTIC USE","UNCODED",1,"TABLET","QD","ORAL","AMBUL ECG REMOVAL","26-NOV-2012","2011","","Y"],[1144,"CDISCPILOT01","701","1392","3","VITAMIN E","UNCODED","PROPHYLAXIS OR NON-THERAPEUTIC USE","UNCODED",1,"TABLET","QD","ORAL","WEEK 6","09-DEC-2012","2011","","Y"],[1145,"CDISCPILOT01","701","1392","3","VITAMIN E","UNCODED","PROPHYLAXIS OR NON-THERAPEUTIC USE","UNCODED",1,"TABLET","QD","ORAL","WEEK 8","20-DEC-2012","2011","","Y"],[1146,"CDISCPILOT01","701","1392","3","VITAMIN E","UNCODED","PROPHYLAXIS OR NON-THERAPEUTIC USE","UNCODED",1,"TABLET","QD","ORAL","WEEK 12","20-JAN-2013","2011","","Y"],[1147,"CDISCPILOT01","701","1392","3","VITAMIN E","UNCODED","PROPHYLAXIS OR NON-THERAPEUTIC USE","UNCODED",1,"TABLET","QD","ORAL","WEEK 16","17-FEB-2013","2011","","Y"],[1148,"CDISCPILOT01","701","1392","3","VITAMIN E","UNCODED","PROPHYLAXIS OR NON-THERAPEUTIC USE","UNCODED",1,"TABLET","QD","ORAL","WEEK 20","17-MAR-2013","2011","","Y"],[1149,"CDISCPILOT01","701","1392","3","VITAMIN E","UNCODED","PROPHYLAXIS OR NON-THERAPEUTIC USE","UNCODED",1,"TABLET","QD","ORAL","WEEK 24","15-APR-2013","2011","","Y"],[1150,"CDISCPILOT01","701","1392","3","VITAMIN E","UNCODED","PROPHYLAXIS OR NON-THERAPEUTIC USE","UNCODED",1,"TABLET","QD","ORAL","WEEK 26","28-APR-2013","2011","","Y"],[1151,"CDISCPILOT01","701","1392","4","ZESTRIL","UNCODED","","UNCODED",5,"mg","QD","ORAL","SCREENING 1","17-OCT-2012","17-MAR-2011","","Y"],[1152,"CDISCPILOT01","701","1392","4","ZESTRIL","UNCODED","","UNCODED",5,"mg","QD","ORAL","SCREENING 2","26-OCT-2012","17-MAR-2011","","Y"],[1153,"CDISCPILOT01","701","1392","4","ZESTRIL","UNCODED","","UNCODED",5,"mg","QD","ORAL","BASELINE","28-OCT-2012","17-MAR-2011","","Y"],[1154,"CDISCPILOT01","701","1392","4","ZESTRIL","UNCODED","","UNCODED",5,"mg","QD","ORAL","WEEK 2","11-NOV-2012","17-MAR-2011","","Y"],[1155,"CDISCPILOT01","701","1392","4","ZESTRIL","UNCODED","","UNCODED",5,"mg","QD","ORAL","WEEK 4","24-NOV-2012","17-MAR-2011","","Y"],[1156,"CDISCPILOT01","701","1392","4","ZESTRIL","UNCODED","","UNCODED",5,"mg","QD","ORAL","AMBUL ECG REMOVAL","26-NOV-2012","17-MAR-2011","","Y"],[1157,"CDISCPILOT01","701","1392","4","ZESTRIL","UNCODED","","UNCODED",5,"mg","QD","ORAL","WEEK 6","09-DEC-2012","17-MAR-2011","","Y"],[1158,"CDISCPILOT01","701","1392","4","ZESTRIL","UNCODED","","UNCODED",5,"mg","QD","ORAL","WEEK 8","20-DEC-2012","17-MAR-2011","","Y"],[1159,"CDISCPILOT01","701","1392","4","ZESTRIL","UNCODED","","UNCODED",5,"mg","QD","ORAL","WEEK 12","20-JAN-2013","17-MAR-2011","","Y"],[1160,"CDISCPILOT01","701","1392","4","ZESTRIL","UNCODED","","UNCODED",5,"mg","QD","ORAL","WEEK 16","17-FEB-2013","17-MAR-2011","","Y"],[1161,"CDISCPILOT01","701","1392","4","ZESTRIL","UNCODED","","UNCODED",5,"mg","QD","ORAL","WEEK 20","17-MAR-2013","17-MAR-2011","","Y"],[1162,"CDISCPILOT01","701","1392","4","ZESTRIL","UNCODED","","UNCODED",5,"mg","QD","ORAL","WEEK 24","15-APR-2013","17-MAR-2011","","Y"],[1163,"CDISCPILOT01","701","1392","4","ZESTRIL","UNCODED","","UNCODED",5,"mg","QD","ORAL","WEEK 26","28-APR-2013","17-MAR-2011","","Y"],[1164,"CDISCPILOT01","701","1415","1","AMPICILLIN","UNCODED","","UNCODED",250,"mg","TID","ORAL","SCREENING 1","15-SEP-2013","12-AUG-2013","22-AUG-2013","N"],[1165,"CDISCPILOT01","701","1415","2","MOTRIN","UNCODED","","UNCODED",400,"mg","PRN","ORAL","SCREENING 1","15-SEP-2013","2007","","Y"],[1166,"CDISCPILOT01","701","1415","2","MOTRIN","UNCODED","","UNCODED",400,"mg","PRN","ORAL","SCREENING 2","21-SEP-2013","2007","","Y"],[1167,"CDISCPILOT01","701","1415","2","MOTRIN","UNCODED","","UNCODED",400,"mg","PRN","ORAL","BASELINE","23-SEP-2013","2007","","Y"],[1168,"CDISCPILOT01","701","1415","2","MOTRIN","UNCODED","","UNCODED",400,"mg","PRN","ORAL","WEEK 2","07-OCT-2013","2007","","Y"],[1169,"CDISCPILOT01","701","1415","2","MOTRIN","UNCODED","","UNCODED",400,"mg","PRN","ORAL","WEEK 4","20-OCT-2013","2007","","Y"],[1170,"CDISCPILOT01","701","1415","2","MOTRIN","UNCODED","","UNCODED",400,"mg","PRN","ORAL","AMBUL ECG REMOVAL","22-OCT-2013","2007","","Y"],[1171,"CDISCPILOT01","701","1415","2","MOTRIN","UNCODED","","UNCODED",400,"mg","PRN","ORAL","WEEK 6","04-NOV-2013","2007","","Y"],[1172,"CDISCPILOT01","701","1415","2","MOTRIN","UNCODED","","UNCODED",400,"mg","PRN","ORAL","WEEK 8","21-NOV-2013","2007","","Y"],[1173,"CDISCPILOT01","701","1415","2","MOTRIN","UNCODED","","UNCODED",400,"mg","PRN","ORAL","WEEK 12","21-DEC-2013","2007","","Y"],[1174,"CDISCPILOT01","701","1415","2","MOTRIN","UNCODED","","UNCODED",400,"mg","PRN","ORAL","WEEK 16","14-JAN-2014","2007","","Y"],[1175,"CDISCPILOT01","701","1415","2","MOTRIN","UNCODED","","UNCODED",400,"mg","PRN","ORAL","WEEK 20","10-FEB-2014","2007","","Y"],[1176,"CDISCPILOT01","701","1415","2","MOTRIN","UNCODED","","UNCODED",400,"mg","PRN","ORAL","WEEK 24","10-MAR-2014","2007","","Y"],[1177,"CDISCPILOT01","701","1415","2","MOTRIN","UNCODED","","UNCODED",400,"mg","PRN","ORAL","WEEK 26","24-MAR-2014","2007","","Y"],[1178,"CDISCPILOT01","701","1415","3","OCUVITE","UNCODED","PROPHYLAXIS OR NON-THERAPEUTIC USE","UNCODED",1,"TABLET","BID","ORAL","SCREENING 1","15-SEP-2013","JAN-2012","","Y"],[1179,"CDISCPILOT01","701","1415","3","OCUVITE","UNCODED","PROPHYLAXIS OR NON-THERAPEUTIC USE","UNCODED",1,"TABLET","BID","ORAL","SCREENING 2","21-SEP-2013","JAN-2012","","Y"],[1180,"CDISCPILOT01","701","1415","3","OCUVITE","UNCODED","PROPHYLAXIS OR NON-THERAPEUTIC USE","UNCODED",1,"TABLET","BID","ORAL","BASELINE","23-SEP-2013","JAN-2012","","Y"],[1181,"CDISCPILOT01","701","1415","3","OCUVITE","UNCODED","PROPHYLAXIS OR NON-THERAPEUTIC USE","UNCODED",1,"TABLET","BID","ORAL","WEEK 2","07-OCT-2013","JAN-2012","","Y"],[1182,"CDISCPILOT01","701","1415","3","OCUVITE","UNCODED","PROPHYLAXIS OR NON-THERAPEUTIC USE","UNCODED",1,"TABLET","BID","ORAL","WEEK 4","20-OCT-2013","JAN-2012","","Y"],[1183,"CDISCPILOT01","701","1415","3","OCUVITE","UNCODED","PROPHYLAXIS OR NON-THERAPEUTIC USE","UNCODED",1,"TABLET","BID","ORAL","AMBUL ECG REMOVAL","22-OCT-2013","JAN-2012","","Y"],[1184,"CDISCPILOT01","701","1415","3","OCUVITE","UNCODED","PROPHYLAXIS OR NON-THERAPEUTIC USE","UNCODED",1,"TABLET","BID","ORAL","WEEK 6","04-NOV-2013","JAN-2012","","Y"],[1185,"CDISCPILOT01","701","1415","3","OCUVITE","UNCODED","PROPHYLAXIS OR NON-THERAPEUTIC USE","UNCODED",1,"TABLET","BID","ORAL","WEEK 8","21-NOV-2013","JAN-2012","","Y"],[1186,"CDISCPILOT01","701","1415","3","OCUVITE","UNCODED","PROPHYLAXIS OR NON-THERAPEUTIC USE","UNCODED",1,"TABLET","BID","ORAL","WEEK 12","21-DEC-2013","JAN-2012","","Y"],[1187,"CDISCPILOT01","701","1415","3","OCUVITE","UNCODED","PROPHYLAXIS OR NON-THERAPEUTIC USE","UNCODED",1,"TABLET","BID","ORAL","WEEK 16","14-JAN-2014","JAN-2012","","Y"],[1188,"CDISCPILOT01","701","1415","3","OCUVITE","UNCODED","PROPHYLAXIS OR NON-THERAPEUTIC USE","UNCODED",1,"TABLET","BID","ORAL","WEEK 20","10-FEB-2014","JAN-2012","","Y"],[1189,"CDISCPILOT01","701","1415","3","OCUVITE","UNCODED","PROPHYLAXIS OR NON-THERAPEUTIC USE","UNCODED",1,"TABLET","BID","ORAL","WEEK 24","10-MAR-2014","JAN-2012","","Y"],[1190,"CDISCPILOT01","701","1415","3","OCUVITE","UNCODED","PROPHYLAXIS OR NON-THERAPEUTIC USE","UNCODED",1,"TABLET","BID","ORAL","WEEK 26","24-MAR-2014","JAN-2012","","Y"],[1191,"CDISCPILOT01","701","1415","4","PROMETHAZINE HCL W/CODEINE","UNCODED","","UNCODED",1,"tsp","ONCE","ORAL","SCREENING 1","15-SEP-2013","15-AUG-2013","15-AUG-2013","N"],[1192,"CDISCPILOT01","701","1415","5","CEFACLOR","UNCODED","","UNCODED",500,"mg","TID","ORAL","WEEK 20","10-FEB-2014","21-JAN-2014","09-FEB-2014","N"],[1193,"CDISCPILOT01","701","1440","1","CENTRAL-VITE","UNCODED","PROPHYLAXIS OR NON-THERAPEUTIC USE","UNCODED",1,"TABLET","QD","ORAL","SCREENING 1","24-JUL-2013","JUN-2013","","Y"],[1194,"CDISCPILOT01","701","1440","1","CENTRAL-VITE","UNCODED","PROPHYLAXIS OR NON-THERAPEUTIC USE","UNCODED",1,"TABLET","QD","ORAL","SCREENING 2","06-AUG-2013","JUN-2013","","Y"],[1195,"CDISCPILOT01","701","1440","1","CENTRAL-VITE","UNCODED","PROPHYLAXIS OR NON-THERAPEUTIC USE","UNCODED",1,"TABLET","QD","ORAL","BASELINE","08-AUG-2013","JUN-2013","","Y"],[1196,"CDISCPILOT01","701","1440","1","CENTRAL-VITE","UNCODED","PROPHYLAXIS OR NON-THERAPEUTIC USE","UNCODED",1,"TABLET","QD","ORAL","WEEK 2","23-AUG-2013","JUN-2013","","Y"],[1197,"CDISCPILOT01","701","1440","1","CENTRAL-VITE","UNCODED","PROPHYLAXIS OR NON-THERAPEUTIC USE","UNCODED",1,"TABLET","QD","ORAL","WEEK 4","04-SEP-2013","JUN-2013","","Y"],[1198,"CDISCPILOT01","701","1440","1","CENTRAL-VITE","UNCODED","PROPHYLAXIS OR NON-THERAPEUTIC USE","UNCODED",1,"TABLET","QD","ORAL","AMBUL ECG REMOVAL","06-SEP-2013","JUN-2013","","Y"],[1199,"CDISCPILOT01","701","1440","1","CENTRAL-VITE","UNCODED","PROPHYLAXIS OR NON-THERAPEUTIC USE","UNCODED",1,"TABLET","QD","ORAL","WEEK 6","22-SEP-2013","JUN-2013","","Y"],[1200,"CDISCPILOT01","701","1440","1","CENTRAL-VITE","UNCODED","PROPHYLAXIS OR NON-THERAPEUTIC USE","UNCODED",1,"TABLET","QD","ORAL","WEEK 8","03-OCT-2013","JUN-2013","","Y"],[1201,"CDISCPILOT01","701","1440","1","CENTRAL-VITE","UNCODED","PROPHYLAXIS OR NON-THERAPEUTIC USE","UNCODED",1,"TABLET","QD","ORAL","WEEK 12","31-OCT-2013","JUN-2013","","Y"],[1202,"CDISCPILOT01","701","1440","1","CENTRAL-VITE","UNCODED","PROPHYLAXIS OR NON-THERAPEUTIC USE","UNCODED",1,"TABLET","QD","ORAL","WEEK 16","27-NOV-2013","JUN-2013","","Y"],[1203,"CDISCPILOT01","701","1440","1","CENTRAL-VITE","UNCODED","PROPHYLAXIS OR NON-THERAPEUTIC USE","UNCODED",1,"TABLET","QD","ORAL","WEEK 20","25-DEC-2013","JUN-2013","","Y"],[1204,"CDISCPILOT01","701","1440","1","CENTRAL-VITE","UNCODED","PROPHYLAXIS OR NON-THERAPEUTIC USE","UNCODED",1,"TABLET","QD","ORAL","WEEK 24","22-JAN-2014","JUN-2013","","Y"],[1205,"CDISCPILOT01","701","1440","1","CENTRAL-VITE","UNCODED","PROPHYLAXIS OR NON-THERAPEUTIC USE","UNCODED",1,"TABLET","QD","ORAL","WEEK 26","05-FEB-2014","JUN-2013","","Y"],[1206,"CDISCPILOT01","701","1442","1","PREMARIN","ESTROGENS CONJUGATED","PROPHYLAXIS OR NON-THERAPEUTIC USE","GENITO URINARY SYSTEM AND SEX HORMONES",0.625,"mg","QD","ORAL","SCREENING 1","17-OCT-2013","1997","","Y"],[1207,"CDISCPILOT01","701","1442","1","PREMARIN","ESTROGENS CONJUGATED","PROPHYLAXIS OR NON-THERAPEUTIC USE","GENITO URINARY SYSTEM AND SEX HORMONES",0.625,"mg","QD","ORAL","SCREENING 2","24-OCT-2013","1997","","Y"],[1208,"CDISCPILOT01","701","1442","1","PREMARIN","ESTROGENS CONJUGATED","PROPHYLAXIS OR NON-THERAPEUTIC USE","GENITO URINARY SYSTEM AND SEX HORMONES",0.625,"mg","QD","ORAL","BASELINE","26-OCT-2013","1997","","Y"],[1209,"CDISCPILOT01","701","1442","1","PREMARIN","ESTROGENS CONJUGATED","PROPHYLAXIS OR NON-THERAPEUTIC USE","GENITO URINARY SYSTEM AND SEX HORMONES",0.625,"mg","QD","ORAL","WEEK 2","09-NOV-2013","1997","","Y"],[1210,"CDISCPILOT01","701","1442","1","PREMARIN","ESTROGENS CONJUGATED","PROPHYLAXIS OR NON-THERAPEUTIC USE","GENITO URINARY SYSTEM AND SEX HORMONES",0.625,"mg","QD","ORAL","WEEK 4","23-NOV-2013","1997","","Y"],[1211,"CDISCPILOT01","701","1442","1","PREMARIN","ESTROGENS CONJUGATED","PROPHYLAXIS OR NON-THERAPEUTIC USE","GENITO URINARY SYSTEM AND SEX HORMONES",0.625,"mg","QD","ORAL","AMBUL ECG REMOVAL","25-NOV-2013","1997","","Y"],[1212,"CDISCPILOT01","701","1442","1","PREMARIN","ESTROGENS CONJUGATED","PROPHYLAXIS OR NON-THERAPEUTIC USE","GENITO URINARY SYSTEM AND SEX HORMONES",0.625,"mg","QD","ORAL","WEEK 6","07-DEC-2013","1997","","Y"],[1213,"CDISCPILOT01","701","1442","1","PREMARIN","ESTROGENS CONJUGATED","PROPHYLAXIS OR NON-THERAPEUTIC USE","GENITO URINARY SYSTEM AND SEX HORMONES",0.625,"mg","QD","ORAL","WEEK 8","26-DEC-2013","1997","","Y"],[1214,"CDISCPILOT01","701","1442","1","PREMARIN","ESTROGENS CONJUGATED","PROPHYLAXIS OR NON-THERAPEUTIC USE","GENITO URINARY SYSTEM AND SEX HORMONES",0.625,"mg","QD","ORAL","WEEK 12","18-JAN-2014","1997","","Y"],[1215,"CDISCPILOT01","701","1442","1","PREMARIN","ESTROGENS CONJUGATED","PROPHYLAXIS OR NON-THERAPEUTIC USE","GENITO URINARY SYSTEM AND SEX HORMONES",0.625,"mg","QD","ORAL","WEEK 16","15-FEB-2014","1997","","Y"],[1216,"CDISCPILOT01","701","1442","1","PREMARIN","ESTROGENS CONJUGATED","PROPHYLAXIS OR NON-THERAPEUTIC USE","GENITO URINARY SYSTEM AND SEX HORMONES",0.625,"mg","QD","ORAL","WEEK 20","15-MAR-2014","1997","","Y"],[1217,"CDISCPILOT01","701","1442","1","PREMARIN","ESTROGENS CONJUGATED","PROPHYLAXIS OR NON-THERAPEUTIC USE","GENITO URINARY SYSTEM AND SEX HORMONES",0.625,"mg","QD","ORAL","WEEK 24","17-APR-2014","1997","","Y"],[1218,"CDISCPILOT01","701","1442","1","PREMARIN","ESTROGENS CONJUGATED","PROPHYLAXIS OR NON-THERAPEUTIC USE","GENITO URINARY SYSTEM AND SEX HORMONES",0.625,"mg","QD","ORAL","WEEK 26","26-APR-2014","1997","","Y"],[1219,"CDISCPILOT01","701","1444","1","ADVIL","UNCODED","","UNCODED",200,"mg","PRN","ORAL","SCREENING 1","31-DEC-2012","2011","","Y"],[1220,"CDISCPILOT01","701","1444","1","ADVIL","UNCODED","","UNCODED",200,"mg","PRN","ORAL","SCREENING 2","03-JAN-2013","2011","","Y"],[1221,"CDISCPILOT01","701","1444","1","ADVIL","UNCODED","","UNCODED",200,"mg","PRN","ORAL","BASELINE","05-JAN-2013","2011","","Y"],[1222,"CDISCPILOT01","701","1444","1","ADVIL","UNCODED","","UNCODED",200,"mg","PRN","ORAL","WEEK 2","18-JAN-2013","2011","","Y"],[1223,"CDISCPILOT01","701","1444","1","ADVIL","UNCODED","","UNCODED",200,"mg","PRN","ORAL","WEEK 4","31-JAN-2013","2011","","Y"],[1224,"CDISCPILOT01","701","1444","1","ADVIL","UNCODED","","UNCODED",200,"mg","PRN","ORAL","AMBUL ECG REMOVAL","02-FEB-2013","2011","","Y"],[1225,"CDISCPILOT01","701","1444","1","ADVIL","UNCODED","","UNCODED",200,"mg","PRN","ORAL","WEEK 6","13-FEB-2013","2011","","Y"],[1226,"CDISCPILOT01","701","1444","1","ADVIL","UNCODED","","UNCODED",200,"mg","PRN","ORAL","AE FOLLOW-UP","20-JUN-2013","2011","","Y"],[1227,"CDISCPILOT01","701","1444","1","ADVIL","UNCODED","","UNCODED",200,"mg","PRN","ORAL","RETRIEVAL","20-JUN-2013","2011","","Y"],[1228,"CDISCPILOT01","701","1444","2","METAMUCIL","UNCODED","","UNCODED",3,"Tbsp","QD","ORAL","SCREENING 1","31-DEC-2012","2009","","Y"],[1229,"CDISCPILOT01","701","1444","2","METAMUCIL","UNCODED","","UNCODED",3,"Tbsp","QD","ORAL","SCREENING 2","03-JAN-2013","2009","","Y"],[1230,"CDISCPILOT01","701","1444","2","METAMUCIL","UNCODED","","UNCODED",3,"Tbsp","QD","ORAL","BASELINE","05-JAN-2013","2009","","Y"],[1231,"CDISCPILOT01","701","1444","2","METAMUCIL","UNCODED","","UNCODED"