{"creationDateTime":"2024-02-14T11:46:09","datasetJSONVersion":"1.0.0","fileOID":"CDISCPILOT01.ds","referenceData":{"studyOID":"CDISCPILOT01","metaDataVersionOID":"MDV.CDISCPILOT01","itemGroupData":{"IG.DS":{"records":342,"name":"DS","label":"Disposition (DS)","items":[{"OID":"ITEMGROUPDATASEQ","name":"ITEMGROUPDATASEQ","label":"Record Identifier","type":"integer"},{"OID":"IT.DS.STUDYID","name":"STUDYID","label":"Study Identifier","type":"string","length":12,"displayFormat":"."},{"OID":"IT.DS.SITEID","name":"SITEID","label":"Study Site Identifier","type":"string","length":3,"displayFormat":"."},{"OID":"IT.DS.SUBJID","name":"SUBJID","label":"Subject Identifier for the Study","type":"string","length":4,"displayFormat":"."},{"OID":"IT.DS.DSSPID","name":"DSSPID","label":"Sponsor-Defined Identifier","type":"string","length":2,"displayFormat":"."},{"OID":"IT.DS.DSTERM","name":"DSTERM","label":"Disposition Event Reported Term","type":"string","length":63,"displayFormat":"."},{"OID":"IT.DS.DSDECOD","name":"DSDECOD","label":"Disposition Event Dictionary-Derived/Sta","type":"string","length":63,"displayFormat":"."},{"OID":"IT.DS.DSCAT","name":"DSCAT","label":"Category for Disposition Events","type":"string","length":17,"displayFormat":"."},{"OID":"IT.DS.VISIT","name":"VISIT","label":"Visit Name","type":"string","length":19,"displayFormat":"."},{"OID":"IT.DS.DSDAT","name":"DSDAT","label":"Date of Disposition Collection","type":"string","length":11,"displayFormat":"."},{"OID":"IT.DS.DSSTDAT","name":"DSSTDAT","label":"Disposition Event Start Date","type":"string","length":11,"displayFormat":"."},{"OID":"IT.DS.DTHDAT","name":"DTHDAT","label":"Date of Death","type":"string","length":11,"displayFormat":"."}],"itemData":[[1,"CDISCPILOT01","701","1015","","PROTOCOL COMPLETED","COMPLETED","DISPOSITION EVENT","WEEK 26","02-JUL-2014","02-JUL-2014",""],[2,"CDISCPILOT01","701","1023","24","ADVERSE EVENT","ADVERSE EVENT","DISPOSITION EVENT","WEEK 4","02-SEP-2012","02-SEP-2012",""],[3,"CDISCPILOT01","701","1023","","FINAL RETRIEVAL VISIT","FINAL RETRIEVAL VISIT","OTHER EVENT","RETRIEVAL","18-FEB-2013","18-FEB-2013",""],[4,"CDISCPILOT01","701","1028","","PROTOCOL COMPLETED","COMPLETED","DISPOSITION EVENT","WEEK 26","14-JAN-2014","14-JAN-2014",""],[5,"CDISCPILOT01","701","1033","","SPONSOR DECISION (STUDY OR PATIENT DISCONTINUED BY THE SPONSOR)","STUDY TERMINATED BY SPONSOR","DISPOSITION EVENT","WEEK 4","14-APR-2014","14-APR-2014",""],[6,"CDISCPILOT01","701","1033","","FINAL RETRIEVAL VISIT","FINAL RETRIEVAL VISIT","OTHER EVENT","RETRIEVAL","15-SEP-2014","15-SEP-2014",""],[7,"CDISCPILOT01","701","1034","","PROTOCOL COMPLETED","COMPLETED","DISPOSITION EVENT","WEEK 26","30-DEC-2014","30-DEC-2014",""],[8,"CDISCPILOT01","701","1047","17","ADVERSE EVENT","ADVERSE EVENT","DISPOSITION EVENT","AMBUL ECG REMOVAL","29-MAR-2013","29-MAR-2013",""],[9,"CDISCPILOT01","701","1047","","FINAL RETRIEVAL VISIT","FINAL RETRIEVAL VISIT","OTHER EVENT","RETRIEVAL","28-JUL-2013","28-JUL-2013",""],[10,"CDISCPILOT01","701","1057","","SCREEN FAILURE","SCREEN FAILURE","DISPOSITION EVENT","SCREENING 1","20-DEC-2013","20-DEC-2013",""],[11,"CDISCPILOT01","701","1097","","PROTOCOL COMPLETED","COMPLETED","DISPOSITION EVENT","WEEK 26","09-JUL-2014","09-JUL-2014",""],[12,"CDISCPILOT01","701","1111","32","ADVERSE EVENT","ADVERSE EVENT","DISPOSITION EVENT","WEEK 2","17-SEP-2012","17-SEP-2012",""],[13,"CDISCPILOT01","701","1111","","FINAL RETRIEVAL VISIT","FINAL RETRIEVAL VISIT","OTHER EVENT","RETRIEVAL","22-FEB-2013","22-FEB-2013",""],[14,"CDISCPILOT01","701","1115","18","ADVERSE EVENT","ADVERSE EVENT","DISPOSITION EVENT","WEEK 8","23-JAN-2013","23-JAN-2013",""],[15,"CDISCPILOT01","701","1115","","FINAL RETRIEVAL VISIT","FINAL RETRIEVAL VISIT","OTHER EVENT","RETRIEVAL","20-MAY-2013","20-MAY-2013",""],[16,"CDISCPILOT01","701","1118","","PROTOCOL COMPLETED","COMPLETED","DISPOSITION EVENT","WEEK 26","09-SEP-2014","09-SEP-2014",""],[17,"CDISCPILOT01","701","1130","","PROTOCOL COMPLETED","COMPLETED","DISPOSITION EVENT","WEEK 26","16-AUG-2014","16-AUG-2014",""],[18,"CDISCPILOT01","701","1133","","PROTOCOL COMPLETED","COMPLETED","DISPOSITION EVENT","WEEK 26","29-APR-2013","29-APR-2013",""],[19,"CDISCPILOT01","701","1145","","SCREEN FAILURE","SCREEN FAILURE","DISPOSITION EVENT","SCREENING 1","05-SEP-2013","05-SEP-2013",""],[20,"CDISCPILOT01","701","1146","20","ADVERSE EVENT","ADVERSE EVENT","DISPOSITION EVENT","WEEK 6","30-JUN-2013","30-JUN-2013",""],[21,"CDISCPILOT01","701","1148","","PROTOCOL COMPLETED","COMPLETED","DISPOSITION EVENT","WEEK 26","20-FEB-2014","20-FEB-2014",""],[22,"CDISCPILOT01","701","1153","","PROTOCOL COMPLETED","COMPLETED","DISPOSITION EVENT","WEEK 26","01-APR-2014","01-APR-2014",""],[23,"CDISCPILOT01","701","1162","","SCREEN FAILURE","SCREEN FAILURE","DISPOSITION EVENT","SCREENING 1","18-APR-2013","18-APR-2013",""],[24,"CDISCPILOT01","701","1176","","SCREEN FAILURE","SCREEN FAILURE","DISPOSITION EVENT","SCREENING 1","30-SEP-2012","30-SEP-2012",""],[25,"CDISCPILOT01","701","1180"," 7","ADVERSE EVENT","ADVERSE EVENT","DISPOSITION EVENT","WEEK 6","23-MAR-2013","23-MAR-2013",""],[26,"CDISCPILOT01","701","1181","24","ADVERSE EVENT","ADVERSE EVENT","DISPOSITION EVENT","WEEK 2","12-DEC-2013","12-DEC-2013",""],[27,"CDISCPILOT01","701","1181","","FINAL RETRIEVAL VISIT","FINAL RETRIEVAL VISIT","OTHER EVENT","RETRIEVAL","23-MAY-2014","23-MAY-2014",""],[28,"CDISCPILOT01","701","1188","14","ADVERSE EVENT","ADVERSE EVENT","DISPOSITION EVENT","WEEK 6","25-MAR-2013","25-MAR-2013",""],[29,"CDISCPILOT01","701","1188","","FINAL RETRIEVAL VISIT","FINAL RETRIEVAL VISIT","OTHER EVENT","RETRIEVAL","04-AUG-2013","04-AUG-2013",""],[30,"CDISCPILOT01","701","1192","","PROTOCOL COMPLETED","COMPLETED","DISPOSITION EVENT","WEEK 26","20-JAN-2013","20-JAN-2013",""],[31,"CDISCPILOT01","701","1203","","PROTOCOL COMPLETED","COMPLETED","DISPOSITION EVENT","WEEK 26","03-AUG-2013","03-AUG-2013",""],[32,"CDISCPILOT01","701","1211","18","DEATH","DEATH","DISPOSITION EVENT","WEEK 12","14-JAN-2013","14-JAN-2013","14-JAN-2013"],[33,"CDISCPILOT01","701","1234","","PROTOCOL COMPLETED","COMPLETED","DISPOSITION EVENT","WEEK 26","22-SEP-2013","22-SEP-2013",""],[34,"CDISCPILOT01","701","1239","","PROTOCOL COMPLETED","COMPLETED","DISPOSITION EVENT","WEEK 26","11-JUL-2014","11-JUL-2014",""],[35,"CDISCPILOT01","701","1240","","SCREEN FAILURE","SCREEN FAILURE","DISPOSITION EVENT","SCREENING 1","22-SEP-2013","22-SEP-2013",""],[36,"CDISCPILOT01","701","1275","","WITHDRAW CONSENT","WITHDRAWAL BY SUBJECT","DISPOSITION EVENT","WEEK 16","14-JUN-2014","14-JUN-2014",""],[37,"CDISCPILOT01","701","1287","","PROTOCOL COMPLETED","COMPLETED","DISPOSITION EVENT","WEEK 26","26-JUL-2014","26-JUL-2014",""],[38,"CDISCPILOT01","701","1294","14","ADVERSE EVENT","ADVERSE EVENT","DISPOSITION EVENT","WEEK 12","14-JUN-2013","14-JUN-2013",""],[39,"CDISCPILOT01","701","1294","","FINAL RETRIEVAL VISIT","FINAL RETRIEVAL VISIT","OTHER EVENT","RETRIEVAL","08-OCT-2013","08-OCT-2013",""],[40,"CDISCPILOT01","701","1302","31","ADVERSE EVENT","ADVERSE EVENT","DISPOSITION EVENT","WEEK 12","05-NOV-2013","05-NOV-2013",""],[41,"CDISCPILOT01","701","1302","","FINAL RETRIEVAL VISIT","FINAL RETRIEVAL VISIT","OTHER EVENT","RETRIEVAL","13-FEB-2014","13-FEB-2014",""],[42,"CDISCPILOT01","701","1307","","SCREEN FAILURE","SCREEN FAILURE","DISPOSITION EVENT","SCREENING 1","08-DEC-2013","08-DEC-2013",""],[43,"CDISCPILOT01","701","1317","","PROTOCOL COMPLETED","COMPLETED","DISPOSITION EVENT","WEEK 26","20-NOV-2014","20-NOV-2014",""],[44,"CDISCPILOT01","701","1324","","PROTOCOL COMPLETED","COMPLETED","DISPOSITION EVENT","WEEK 26","02-APR-2013","02-APR-2013",""],[45,"CDISCPILOT01","701","1341","14","ADVERSE EVENT","ADVERSE EVENT","DISPOSITION EVENT","WEEK 4","07-FEB-2013","07-FEB-2013",""],[46,"CDISCPILOT01","701","1345","","SPONSOR DECISION (STUDY OR PATIENT DISCONTINUED BY THE SPONSOR)","STUDY TERMINATED BY SPONSOR","DISPOSITION EVENT","WEEK 24","18-MAR-2014","18-MAR-2014",""],[47,"CDISCPILOT01","701","1356","","SCREEN FAILURE","SCREEN FAILURE","DISPOSITION EVENT","SCREENING 1","01-APR-2014","01-APR-2014",""],[48,"CDISCPILOT01","701","1360","","PMD DECISION DUE TO AE'S","PHYSICIAN DECISION","DISPOSITION EVENT","WEEK 2","14-AUG-2013","14-AUG-2013",""],[49,"CDISCPILOT01","701","1360","","FINAL RETRIEVAL VISIT","FINAL RETRIEVAL VISIT","OTHER EVENT","RETRIEVAL","11-FEB-2014","11-FEB-2014",""],[50,"CDISCPILOT01","701","1363","","PROTOCOL COMPLETED","COMPLETED","DISPOSITION EVENT","WEEK 26","27-NOV-2013","27-NOV-2013",""],[51,"CDISCPILOT01","701","1369","","SCREEN FAILURE","SCREEN FAILURE","DISPOSITION EVENT","SCREENING 1","18-SEP-2013","18-SEP-2013",""],[52,"CDISCPILOT01","701","1383","","PROTOCOL COMPLETED","COMPLETED","DISPOSITION EVENT","WEEK 26","06-AUG-2013","06-AUG-2013",""],[53,"CDISCPILOT01","701","1386","","SCREEN FAILURE","SCREEN FAILURE","DISPOSITION EVENT","SCREENING 1","28-DEC-2013","28-DEC-2013",""],[54,"CDISCPILOT01","701","1387","","PROTOCOL VIOLATION","PROTOCOL VIOLATION","DISPOSITION EVENT","WEEK 2","25-MAR-2014","25-MAR-2014",""],[55,"CDISCPILOT01","701","1387","","FINAL RETRIEVAL VISIT","FINAL RETRIEVAL VISIT","OTHER EVENT","RETRIEVAL","27-AUG-2014","27-AUG-2014",""],[56,"CDISCPILOT01","701","1392","","PROTOCOL COMPLETED","COMPLETED","DISPOSITION EVENT","WEEK 26","28-APR-2013","28-APR-2013",""],[57,"CDISCPILOT01","701","1411","","SCREEN FAILURE","SCREEN FAILURE","DISPOSITION EVENT","SCREENING 1","14-NOV-2012","14-NOV-2012",""],[58,"CDISCPILOT01","701","1415","","PROTOCOL COMPLETED","COMPLETED","DISPOSITION EVENT","WEEK 26","24-MAR-2014","24-MAR-2014",""],[59,"CDISCPILOT01","701","1429","","WITHDRAW CONSENT DUE TO COMPLIANCY ISSUE","WITHDRAWAL BY SUBJECT","DISPOSITION EVENT","WEEK 6","30-APR-2013","30-APR-2013",""],[60,"CDISCPILOT01","701","1440","","PROTOCOL COMPLETED","COMPLETED","DISPOSITION EVENT","WEEK 26","05-FEB-2014","05-FEB-2014",""],[61,"CDISCPILOT01","701","1442","","PROTOCOL COMPLETED","COMPLETED","DISPOSITION EVENT","WEEK 26","26-APR-2014","26-APR-2014",""],[62,"CDISCPILOT01","701","1444","29","ADVERSE EVENT","ADVERSE EVENT","DISPOSITION EVENT","WEEK 6","13-FEB-2013","13-FEB-2013",""],[63,"CDISCPILOT01","701","1444","","FINAL RETRIEVAL VISIT","FINAL RETRIEVAL VISIT","OTHER EVENT","RETRIEVAL","20-JUN-2013","20-JUN-2013",""],[64,"CDISCPILOT01","702","1082","","PT FINDS PATCHES\"INCONVENIENT & ITCHY;PT PREFERS'PILLS'\"","WITHDRAWAL BY SUBJECT","DISPOSITION EVENT","WEEK 12","17-NOV-2013","17-NOV-2013",""],[65,"CDISCPILOT01","703","1042","","PROTOCOL COMPLETED","COMPLETED","DISPOSITION EVENT","WEEK 26","31-AUG-2013","31-AUG-2013",""],[66,"CDISCPILOT01","703","1076"," 8","ADVERSE EVENT","ADVERSE EVENT","DISPOSITION EVENT","WEEK 12","24-DEC-2013","24-DEC-2013",""],[67,"CDISCPILOT01","703","1086"," 1","ADVERSE EVENT","ADVERSE EVENT","DISPOSITION EVENT","WEEK 16","24-DEC-2012","24-DEC-2012",""],[68,"CDISCPILOT01","703","1086","","FINAL RETRIEVAL VISIT","FINAL RETRIEVAL VISIT","OTHER EVENT","RETRIEVAL","26-MAR-2013","26-MAR-2013",""],[69,"CDISCPILOT01","703","1096","","UNABLE TO CONTACT PATIENT (LOST TO FOLLOW-UP)","LOST TO FOLLOW-UP","DISPOSITION EVENT","WEEK 6","29-MAR-2013","29-MAR-2013",""],[70,"CDISCPILOT01","703","1100","","PROTOCOL COMPLETED","COMPLETED","DISPOSITION EVENT","WEEK 26","14-SEP-2013","14-SEP-2013",""],[71,"CDISCPILOT01","703","1119","10","ADVERSE EVENT","ADVERSE EVENT","DISPOSITION EVENT","WEEK 16","13-JUN-2013","13-JUN-2013",""],[72,"CDISCPILOT01","703","1119","","FINAL RETRIEVAL VISIT","FINAL RETRIEVAL VISIT","OTHER EVENT","RETRIEVAL","24-AUG-2013","24-AUG-2013",""],[73,"CDISCPILOT01","703","1175","","PROTOCOL ENTRY CRITERIA NOT MET","PROTOCOL VIOLATION","DISPOSITION EVENT","WEEK 2","31-DEC-2013","31-DEC-2013",""],[74,"CDISCPILOT01","703","1182"," 9","ADVERSE EVENT","ADVERSE EVENT","DISPOSITION EVENT","WEEK 8","12-DEC-2013","12-DEC-2013",""],[75,"CDISCPILOT01","703","1197","","CAREGIVER DECISION:  SEE COMMENT PAGE","WITHDRAWAL BY SUBJECT","DISPOSITION EVENT","WEEK 2","22-JUL-2013","22-JUL-2013",""],[76,"CDISCPILOT01","703","1210","","PROTOCOL COMPLETED","COMPLETED","DISPOSITION EVENT","WEEK 26","06-SEP-2013","06-SEP-2013",""],[77,"CDISCPILOT01","703","1258","13","ADVERSE EVENT","ADVERSE EVENT","DISPOSITION EVENT","WEEK 26","21-JAN-2013","21-JAN-2013",""],[78,"CDISCPILOT01","703","1279","","CAREGIVER BECAME ILL","WITHDRAWAL BY SUBJECT","DISPOSITION EVENT","WEEK 2","22-JUN-2013","22-JUN-2013",""],[79,"CDISCPILOT01","703","1295","","FAMILY WISHES TO DISCONTINUE","WITHDRAWAL BY SUBJECT","DISPOSITION EVENT","WEEK 20","19-MAY-2014","19-MAY-2014",""],[80,"CDISCPILOT01","703","1299","","PROTOCOL COMPLETED","COMPLETED","DISPOSITION EVENT","WEEK 26","13-MAR-2013","13-MAR-2013",""],[81,"CDISCPILOT01","703","1335","","PROTOCOL VIOLATION","PROTOCOL VIOLATION","DISPOSITION EVENT","WEEK 6","24-MAY-2014","24-MAY-2014",""],[82,"CDISCPILOT01","703","1379","","PROTOCOL COMPLETED","COMPLETED","DISPOSITION EVENT","WEEK 26","21-MAR-2014","21-MAR-2014",""],[83,"CDISCPILOT01","703","1396","","SCREEN FAILURE","SCREEN FAILURE","DISPOSITION EVENT","SCREENING 1","09-FEB-2014","09-FEB-2014",""],[84,"CDISCPILOT01","703","1403"," 5","ADVERSE EVENT","ADVERSE EVENT","DISPOSITION EVENT","WEEK 2","19-DEC-2012","19-DEC-2012",""],[85,"CDISCPILOT01","703","1439","","PROTOCOL COMPLETED","COMPLETED","DISPOSITION EVENT","WEEK 26","11-SEP-2014","11-SEP-2014",""],[86,"CDISCPILOT01","704","1008"," 9","ADVERSE EVENT","ADVERSE EVENT","DISPOSITION EVENT","WEEK 6","25-FEB-2013","25-FEB-2013",""],[87,"CDISCPILOT01","704","1009","","TOO TIME CONSUMING;PT REFUSED FUTURE HOLTERS","WITHDRAWAL BY SUBJECT","DISPOSITION EVENT","WEEK 4","02-OCT-2013","02-OCT-2013",""],[88,"CDISCPILOT01","704","1010","","PATIENT IS MOVING","WITHDRAWAL BY SUBJECT","DISPOSITION EVENT","WEEK 20","09-JUL-2014","09-JUL-2014",""],[89,"CDISCPILOT01","704","1017","14","ADVERSE EVENT","ADVERSE EVENT","DISPOSITION EVENT","WEEK 6","24-NOV-2013","24-NOV-2013",""],[90,"CDISCPILOT01","704","1025"," 8","ADVERSE EVENT","ADVERSE EVENT","DISPOSITION EVENT","AMBUL ECG REMOVAL","29-NOV-2013","29-NOV-2013",""],[91,"CDISCPILOT01","704","1065","14","ADVERSE EVENT","ADVERSE EVENT","DISPOSITION EVENT","WEEK 12","24-DEC-2013","24-DEC-2013",""],[92,"CDISCPILOT01","704","1074","11","ADVERSE EVENT","ADVERSE EVENT","DISPOSITION EVENT","WEEK 8","31-MAR-2014","31-MAR-2014",""],[93,"CDISCPILOT01","704","1093"," 8","ADVERSE EVENT","ADVERSE EVENT","DISPOSITION EVENT","WEEK 16","20-JUN-2013","20-JUN-2013",""],[94,"CDISCPILOT01","704","1093","","FINAL RETRIEVAL VISIT","FINAL RETRIEVAL VISIT","OTHER EVENT","RETRIEVAL","25-DEC-2013","25-DEC-2013",""],[95,"CDISCPILOT01","704","1114","","LEAVING AREA FOR 5 MONTHS","WITHDRAWAL BY SUBJECT","DISPOSITION EVENT","WEEK 24","08-JUL-2013","08-JUL-2013",""],[96,"CDISCPILOT01","704","1120"," 3","ADVERSE EVENT","ADVERSE EVENT","DISPOSITION EVENT","WEEK 12","03-FEB-2014","03-FEB-2014",""],[97,"CDISCPILOT01","704","1127","","PROTOCOL COMPLETED","COMPLETED","DISPOSITION EVENT","WEEK 26","31-MAR-2014","31-MAR-2014",""],[98,"CDISCPILOT01","704","1135","","PROTOCOL COMPLETED","COMPLETED","DISPOSITION EVENT","WEEK 26","16-MAY-2014","16-MAY-2014",""],[99,"CDISCPILOT01","704","1164","","PROTOCOL COMPLETED","COMPLETED","DISPOSITION EVENT","WEEK 26","04-APR-2013","04-APR-2013",""],[100,"CDISCPILOT01","704","1218","","PROTOCOL COMPLETED","COMPLETED","DISPOSITION EVENT","WEEK 26","27-MAY-2013","27-MAY-2013",""],[101,"CDISCPILOT01","704","1233","","WITHDREW CONSENT","WITHDRAWAL BY SUBJECT","DISPOSITION EVENT","WEEK 20","14-JUL-2013","14-JUL-2013",""],[102,"CDISCPILOT01","704","1241"," 6","ADVERSE EVENT","ADVERSE EVENT","DISPOSITION EVENT","WEEK 8","31-OCT-2013","31-OCT-2013",""],[103,"CDISCPILOT01","704","1260","","TOO MANY VISITS","WITHDRAWAL BY SUBJECT","DISPOSITION EVENT","WEEK 12","18-JAN-2013","18-JAN-2013",""],[104,"CDISCPILOT01","704","1266","16","ADVERSE EVENT","ADVERSE EVENT","DISPOSITION EVENT","WEEK 8","06-DEC-2013","06-DEC-2013",""],[105,"CDISCPILOT01","704","1323","12","ADVERSE EVENT","ADVERSE EVENT","DISPOSITION EVENT","WEEK 6","08-AUG-2013","08-AUG-2013",""],[106,"CDISCPILOT01","704","1325","","PROTOCOL VIOLATION","PROTOCOL VIOLATION","DISPOSITION EVENT","WEEK 16","06-AUG-2014","06-AUG-2014",""],[107,"CDISCPILOT01","704","1332"," 6","ADVERSE EVENT","ADVERSE EVENT","DISPOSITION EVENT","WEEK 12","16-FEB-2014","16-FEB-2014",""],[108,"CDISCPILOT01","704","1351","","PROTOCOL COMPLETED","COMPLETED","DISPOSITION EVENT","WEEK 26","18-APR-2014","18-APR-2014",""],[109,"CDISCPILOT01","704","1388","","PROTOCOL COMPLETED","COMPLETED","DISPOSITION EVENT","WEEK 26","19-JUN-2013","19-JUN-2013",""],[110,"CDISCPILOT01","704","1435","","WITHDREW CONSENT","WITHDRAWAL BY SUBJECT","DISPOSITION EVENT","WEEK 8","12-JAN-2013","12-JAN-2013",""],[111,"CDISCPILOT01","704","1445"," 8","DEATH","DEATH","DISPOSITION EVENT","WEEK 24","01-NOV-2014","01-NOV-2014","01-NOV-2014"],[112,"CDISCPILOT01","705","1011","","SCREEN FAILURE","SCREEN FAILURE","DISPOSITION EVENT","SCREENING 1","01-SEP-2013","01-SEP-2013",""],[113,"CDISCPILOT01","705","1018","","PATIENT WITHDREW CONSENT","WITHDRAWAL BY SUBJECT","DISPOSITION EVENT","WEEK 2","12-JUL-2013","12-JUL-2013",""],[114,"CDISCPILOT01","705","1031","","UNABLE TO CONTACT PATIENT (LOST TO FOLLOW-UP)","LOST TO FOLLOW-UP","DISPOSITION EVENT","WEEK 24","11-MAY-2014","11-MAY-2014",""],[115,"CDISCPILOT01","705","1058","","SCREEN FAILURE","SCREEN FAILURE","DISPOSITION EVENT","SCREENING 1","02-DEC-2013","02-DEC-2013",""],[116,"CDISCPILOT01","705","1059"," 3","ADVERSE EVENT","ADVERSE EVENT","DISPOSITION EVENT","WEEK 16","05-DEC-2013","05-DEC-2013",""],[117,"CDISCPILOT01","705","1059","","FINAL RETRIEVAL VISIT","FINAL RETRIEVAL VISIT","OTHER EVENT","RETRIEVAL","06-FEB-2014","06-FEB-2014",""],[118,"CDISCPILOT01","705","1112","","SCREEN FAILURE","SCREEN FAILURE","DISPOSITION EVENT","SCREENING 1","23-FEB-2014","23-FEB-2014",""],[119,"CDISCPILOT01","705","1186","","HYPERBILIRUBINEMIA","PHYSICIAN DECISION","DISPOSITION EVENT","WEEK 4","07-FEB-2014","07-FEB-2014",""],[120,"CDISCPILOT01","705","1199"," 7","ADVERSE EVENT","ADVERSE EVENT","DISPOSITION EVENT","WEEK 2","29-SEP-2013","29-SEP-2013",""],[121,"CDISCPILOT01","705","1243","","SCREEN FAILURE","SCREEN FAILURE","DISPOSITION EVENT","SCREENING 1","26-FEB-2013","26-FEB-2013",""],[122,"CDISCPILOT01","705","1280","","PROTOCOL COMPLETED","COMPLETED","DISPOSITION EVENT","WEEK 26","25-JUL-2014","25-JUL-2014",""],[123,"CDISCPILOT01","705","1281"," 5","ADVERSE EVENT","ADVERSE EVENT","DISPOSITION EVENT","WEEK 16","17-MAR-2014","17-MAR-2014",""],[124,"CDISCPILOT01","705","1282","","PROTOCOL COMPLETED","COMPLETED","DISPOSITION EVENT","WEEK 26","24-JUN-2013","24-JUN-2013",""],[125,"CDISCPILOT01","705","1292","","PROTOCOL COMPLETED","COMPLETED","DISPOSITION EVENT","WEEK 26","14-MAY-2014","14-MAY-2014",""],[126,"CDISCPILOT01","705","1303"," 3","ADVERSE EVENT","ADVERSE EVENT","DISPOSITION EVENT","WEEK 20","02-JUN-2014","02-JUN-2014",""],[127,"CDISCPILOT01","705","1310"," 3","ADVERSE EVENT","ADVERSE EVENT","DISPOSITION EVENT","WEEK 12","23-JAN-2014","23-JAN-2014",""],[128,"CDISCPILOT01","705","1349","","PROTOCOL COMPLETED","COMPLETED","DISPOSITION EVENT","WEEK 26","08-SEP-2013","08-SEP-2013",""],[129,"CDISCPILOT01","705","1377","","PATIENT WITHDREW CONSENT","WITHDRAWAL BY SUBJECT","DISPOSITION EVENT","WEEK 6","07-MAR-2014","07-MAR-2014",""],[130,"CDISCPILOT01","705","1382","","PROTOCOL ENTRY CRITERIA NOT MET","PROTOCOL VIOLATION","DISPOSITION EVENT","WEEK 2","13-MAY-2013","13-MAY-2013",""],[131,"CDISCPILOT01","705","1393"," 6","ADVERSE EVENT","ADVERSE EVENT","DISPOSITION EVENT","WEEK 20","20-FEB-2013","20-FEB-2013",""],[132,"CDISCPILOT01","705","1421","","SCREEN FAILURE","SCREEN FAILURE","DISPOSITION EVENT","SCREENING 1","14-JAN-2013","14-JAN-2013",""],[133,"CDISCPILOT01","705","1431","","PROTOCOL COMPLETED","COMPLETED","DISPOSITION EVENT","WEEK 26","19-DEC-2013","19-DEC-2013",""],[134,"CDISCPILOT01","706","1041","","PROTOCOL COMPLETED","COMPLETED","DISPOSITION EVENT","WEEK 26","29-JUL-2014","29-JUL-2014",""],[135,"CDISCPILOT01","706","1049"," 5","ADVERSE EVENT","ADVERSE EVENT","DISPOSITION EVENT","WEEK 6","25-JUN-2013","25-JUN-2013",""],[136,"CDISCPILOT01","706","1049","","FINAL RETRIEVAL VISIT","FINAL RETRIEVAL VISIT","OTHER EVENT","RETRIEVAL","26-NOV-2013","26-NOV-2013",""],[137,"CDISCPILOT01","706","1384","14","ADVERSE EVENT","ADVERSE EVENT","DISPOSITION EVENT","WEEK 2","29-SEP-2012","29-SEP-2012",""],[138,"CDISCPILOT01","706","1384","","FINAL RETRIEVAL VISIT","FINAL RETRIEVAL VISIT","OTHER EVENT","RETRIEVAL","22-JUN-2013","22-JUN-2013",""],[139,"CDISCPILOT01","707","1037","","WITHDRAWS CONSENT","WITHDRAWAL BY SUBJECT","DISPOSITION EVENT","WEEK 2","08-JAN-2014","08-JAN-2014",""],[140,"CDISCPILOT01","707","1206","","PROTOCOL COMPLETED","COMPLETED","DISPOSITION EVENT","WEEK 26","27-APR-2014","27-APR-2014",""],[141,"CDISCPILOT01","707","1276","","SCREEN FAILURE","SCREEN FAILURE","DISPOSITION EVENT","SCREENING 1","12-OCT-2012","12-OCT-2012",""],[142,"CDISCPILOT01","707","1430","","SCREEN FAILURE","SCREEN FAILURE","DISPOSITION EVENT","SCREENING 1","14-FEB-2014","14-FEB-2014",""],[143,"CDISCPILOT01","707","1434","","SCREEN FAILURE","SCREEN FAILURE","DISPOSITION EVENT","SCREENING 1","25-JUL-2013","25-JUL-2013",""],[144,"CDISCPILOT01","708","1013","","SCREEN FAILURE","SCREEN FAILURE","DISPOSITION EVENT","SCREENING 1","13-OCT-2012","13-OCT-2012",""],[145,"CDISCPILOT01","708","1019"," 6","ADVERSE EVENT","ADVERSE EVENT","DISPOSITION EVENT","WEEK 2","23-JAN-2014","23-JAN-2014",""],[146,"CDISCPILOT01","708","1032"," 5","ADVERSE EVENT","ADVERSE EVENT","DISPOSITION EVENT","WEEK 4","09-MAR-2013","09-MAR-2013",""],[147,"CDISCPILOT01","708","1054","","SCREEN FAILURE","SCREEN FAILURE","DISPOSITION EVENT","SCREENING 1","14-FEB-2014","14-FEB-2014",""],[148,"CDISCPILOT01","708","1067","","SCREEN FAILURE","SCREEN FAILURE","DISPOSITION EVENT","SCREENING 1","07-FEB-2013","07-FEB-2013",""],[149,"CDISCPILOT01","708","1084","","PROTOCOL COMPLETED","COMPLETED","DISPOSITION EVENT","WEEK 26","11-NOV-2013","11-NOV-2013",""],[150,"CDISCPILOT01","708","1087","","PROTOCOL COMPLETED","COMPLETED","DISPOSITION EVENT","WEEK 26","28-APR-2013","28-APR-2013",""],[151,"CDISCPILOT01","708","1104","","SCREEN FAILURE","SCREEN FAILURE","DISPOSITION EVENT","SCREENING 1","23-JAN-2014","23-JAN-2014",""],[152,"CDISCPILOT01","708","1158"," 8","ADVERSE EVENT","ADVERSE EVENT","DISPOSITION EVENT","WEEK 6","22-MAR-2014","22-MAR-2014",""],[153,"CDISCPILOT01","708","1171","","PROTOCOL COMPLETED","COMPLETED","DISPOSITION EVENT","WEEK 26","04-JUN-2013","04-JUN-2013",""],[154,"CDISCPILOT01","708","1178","","DR PUT PT ON AN EXCLUDED MEDICATION","PHYSICIAN DECISION","DISPOSITION EVENT","WEEK 12","06-APR-2014","06-APR-2014",""],[155,"CDISCPILOT01","708","1184","","SCREEN FAILURE","SCREEN FAILURE","DISPOSITION EVENT","SCREENING 1","14-JAN-2013","14-JAN-2013",""],[156,"CDISCPILOT01","708","1213"," 4","ADVERSE EVENT","ADVERSE EVENT","DISPOSITION EVENT","WEEK 4","26-FEB-2013","26-FEB-2013",""],[157,"CDISCPILOT01","708","1216"," 4","ADVERSE EVENT","ADVERSE EVENT","DISPOSITION EVENT","WEEK 6","06-DEC-2012","06-DEC-2012",""],[158,"CDISCPILOT01","708","1236","","PATIENT WITHDREW CONSENT","WITHDRAWAL BY SUBJECT","DISPOSITION EVENT","WEEK 2","26-SEP-2013","26-SEP-2013",""],[159,"CDISCPILOT01","708","1242","","SCREEN FAILURE","SCREEN FAILURE","DISPOSITION EVENT","SCREENING 1","13-AUG-2012","13-AUG-2012",""],[160,"CDISCPILOT01","708","1253","","PROTOCOL COMPLETED","COMPLETED","DISPOSITION EVENT","WEEK 26","05-NOV-2013","05-NOV-2013",""],[161,"CDISCPILOT01","708","1272","","PATCH DISCOMFORT","WITHDRAWAL BY SUBJECT","DISPOSITION EVENT","WEEK 8","04-APR-2013","04-APR-2013",""],[162,"CDISCPILOT01","708","1286","","PROTOCOL COMPLETED","COMPLETED","DISPOSITION EVENT","WEEK 26","08-MAR-2014","08-MAR-2014",""],[163,"CDISCPILOT01","708","1296","","PROTOCOL COMPLETED","COMPLETED","DISPOSITION EVENT","WEEK 26","12-DEC-2013","12-DEC-2013",""],[164,"CDISCPILOT01","708","1297"," 4","ADVERSE EVENT","ADVERSE EVENT","DISPOSITION EVENT","WEEK 16","08-MAY-2013","08-MAY-2013",""],[165,"CDISCPILOT01","708","1316","","PROTOCOL COMPLETED","COMPLETED","DISPOSITION EVENT","WEEK 26","01-MAR-2014","01-MAR-2014",""],[166,"CDISCPILOT01","708","1336","","PROTOCOL COMPLETED","COMPLETED","DISPOSITION EVENT","WEEK 26","05-JUN-2013","05-JUN-2013",""],[167,"CDISCPILOT01","708","1342","","PROTOCOL COMPLETED","COMPLETED","DISPOSITION EVENT","WEEK 26","28-JUN-2013","28-JUN-2013",""],[168,"CDISCPILOT01","708","1347"," 5","ADVERSE EVENT","ADVERSE EVENT","DISPOSITION EVENT","WEEK 12","18-JUN-2013","18-JUN-2013",""],[169,"CDISCPILOT01","708","1348","","PROTOCOL COMPLETED","COMPLETED","DISPOSITION EVENT","WEEK 26","13-FEB-2014","13-FEB-2014",""],[170,"CDISCPILOT01","708","1352","","SCREEN FAILURE","SCREEN FAILURE","DISPOSITION EVENT","SCREENING 1","16-SEP-2013","16-SEP-2013",""],[171,"CDISCPILOT01","708","1353"," 7","ADVERSE EVENT","ADVERSE EVENT","DISPOSITION EVENT","WEEK 8","10-SEP-2013","10-SEP-2013",""],[172,"CDISCPILOT01","708","1372","","PROTOCOL ENTRY CRITERIA NOT MET","PROTOCOL VIOLATION","DISPOSITION EVENT","WEEK 2","10-MAY-2013","10-MAY-2013",""],[173,"CDISCPILOT01","708","1378","","SPONSOR DECISION (STUDY OR PATIENT DISCONTINUED BY THE SPONSOR)","STUDY TERMINATED BY SPONSOR","DISPOSITION EVENT","WEEK 20","28-JAN-2014","28-JAN-2014",""],[174,"CDISCPILOT01","708","1406","","PROTOCOL COMPLETED","COMPLETED","DISPOSITION EVENT","WEEK 26","02-JUL-2014","02-JUL-2014",""],[175,"CDISCPILOT01","708","1428"," 2","ADVERSE EVENT","ADVERSE EVENT","DISPOSITION EVENT","WEEK 8","31-JAN-2014","31-JAN-2014",""],[176,"CDISCPILOT01","709","1001","","PROTOCOL COMPLETED","COMPLETED","DISPOSITION EVENT","WEEK 26","08-APR-2014","08-APR-2014",""],[177,"CDISCPILOT01","709","1007"," 4","ADVERSE EVENT","ADVERSE EVENT","DISPOSITION EVENT","WEEK 4","01-SEP-2012","01-SEP-2012",""],[178,"CDISCPILOT01","709","1020","","PROTOCOL COMPLETED","COMPLETED","DISPOSITION EVENT","WEEK 26","01-JUN-2013","01-JUN-2013",""],[179,"CDISCPILOT01","709","1029","","PROTOCOL COMPLETED","COMPLETED","DISPOSITION EVENT","WEEK 26","26-JUN-2013","26-JUN-2013",""],[180,"CDISCPILOT01","709","1081"," 8","ADVERSE EVENT","ADVERSE EVENT","DISPOSITION EVENT","WEEK 16","10-MAY-2014","10-MAY-2014",""],[181,"CDISCPILOT01","709","1088","","PROTOCOL COMPLETED","COMPLETED","DISPOSITION EVENT","WEEK 26","09-OCT-2014","09-OCT-2014",""],[182,"CDISCPILOT01","709","1099","","PROTOCOL COMPLETED","COMPLETED","DISPOSITION EVENT","WEEK 26","25-APR-2014","25-APR-2014",""],[183,"CDISCPILOT01","709","1102"," 4","ADVERSE EVENT","ADVERSE EVENT","DISPOSITION EVENT","WEEK 12","31-MAR-2013","31-MAR-2013",""],[184,"CDISCPILOT01","709","1168"," 3","ADVERSE EVENT","ADVERSE EVENT","DISPOSITION EVENT","WEEK 8","27-SEP-2013","27-SEP-2013",""],[185,"CDISCPILOT01","709","1217","14","ADVERSE EVENT","ADVERSE EVENT","DISPOSITION EVENT","WEEK 16","25-JUN-2013","25-JUN-2013",""],[186,"CDISCPILOT01","709","1224","","SCREEN FAILURE","SCREEN FAILURE","DISPOSITION EVENT","SCREENING 1","18-NOV-2013","18-NOV-2013",""],[187,"CDISCPILOT01","709","1237","","SCREEN FAILURE","SCREEN FAILURE","DISPOSITION EVENT","SCREENING 1","17-JAN-2014","17-JAN-2014",""],[188,"CDISCPILOT01","709","1238"," 9","ADVERSE EVENT","ADVERSE EVENT","DISPOSITION EVENT","WEEK 12","07-AUG-2013","07-AUG-2013",""],[189,"CDISCPILOT01","709","1259","","LACK OF EFFICACY, PATIENT CAREGIVER PERCEPTION","LACK OF EFFICACY","DISPOSITION EVENT","WEEK 20","13-JUN-2013","13-JUN-2013",""],[190,"CDISCPILOT01","709","1285","","SPONSOR DECISION (STUDY OR PATIENT DISCONTINUED BY THE SPONSOR)","STUDY TERMINATED BY SPONSOR","DISPOSITION EVENT","WEEK 12","31-MAY-2013","31-MAY-2013",""],[191,"CDISCPILOT01","709","1301","","PROTOCOL COMPLETED","COMPLETED","DISPOSITION EVENT","WEEK 26","17-JAN-2014","17-JAN-2014",""],[192,"CDISCPILOT01","709","1306"," 3","ADVERSE EVENT","ADVERSE EVENT","DISPOSITION EVENT","WEEK 20","25-JUN-2014","25-JUN-2014",""],[193,"CDISCPILOT01","709","1309","","PROTOCOL COMPLETED","COMPLETED","DISPOSITION EVENT","WEEK 26","19-DEC-2013","19-DEC-2013",""],[194,"CDISCPILOT01","709","1312","","PROTOCOL COMPLETED","COMPLETED","DISPOSITION EVENT","WEEK 26","19-OCT-2014","19-OCT-2014",""],[195,"CDISCPILOT01","709","1326","","PROTOCOL COMPLETED","COMPLETED","DISPOSITION EVENT","WEEK 26","02-OCT-2013","02-OCT-2013",""],[196,"CDISCPILOT01","709","1329","","CAREGIVER BURDEN","WITHDRAWAL BY SUBJECT","DISPOSITION EVENT","WEEK 2","29-AUG-2013","29-AUG-2013",""],[197,"CDISCPILOT01","709","1339","","PROTOCOL COMPLETED","COMPLETED","DISPOSITION EVENT","WEEK 26","24-JUN-2013","24-JUN-2013",""],[198,"CDISCPILOT01","709","1424"," 7","ADVERSE EVENT","ADVERSE EVENT","DISPOSITION EVENT","WEEK 2","08-MAR-2013","08-MAR-2013",""],[199,"CDISCPILOT01","710","1002"," 6","ADVERSE EVENT","ADVERSE EVENT","DISPOSITION EVENT","WEEK 2","18-JAN-2014","18-JAN-2014",""],[200,"CDISCPILOT01","710","1006","","PROTOCOL COMPLETED","COMPLETED","DISPOSITION EVENT","WEEK 26","10-AUG-2013","10-AUG-2013",""],[201,"CDISCPILOT01","710","1021"," 5","ADVERSE EVENT","ADVERSE EVENT","DISPOSITION EVENT","WEEK 6","12-NOV-2013","12-NOV-2013",""],[202,"CDISCPILOT01","710","1027","","PROTOCOL COMPLETED","COMPLETED","DISPOSITION EVENT","WEEK 26","29-AUG-2014","29-AUG-2014",""],[203,"CDISCPILOT01","710","1045"," 8","ADVERSE EVENT","ADVERSE EVENT","DISPOSITION EVENT","WEEK 12","17-AUG-2013","17-AUG-2013",""],[204,"CDISCPILOT01","710","1053"," 5","ADVERSE EVENT","ADVERSE EVENT","DISPOSITION EVENT","WEEK 8","15-FEB-2013","15-FEB-2013",""],[205,"CDISCPILOT01","710","1060","","PROTOCOL COMPLETED","COMPLETED","DISPOSITION EVENT","WEEK 26","05-JUL-2013","05-JUL-2013",""],[206,"CDISCPILOT01","710","1070","15","ADVERSE EVENT","ADVERSE EVENT","DISPOSITION EVENT","WEEK 20","23-FEB-2013","23-FEB-2013",""],[207,"CDISCPILOT01","710","1077","","PROTOCOL COMPLETED","COMPLETED","DISPOSITION EVENT","WEEK 26","18-MAY-2014","18-MAY-2014",""],[208,"CDISCPILOT01","710","1078","","PROTOCOL COMPLETED","COMPLETED","DISPOSITION EVENT","WEEK 26","23-MAR-2014","23-MAR-2014",""],[209,"CDISCPILOT01","710","1083"," 6","DEATH","DEATH","DISPOSITION EVENT","WEEK 2","03-AUG-2013","02-AUG-2013","02-AUG-2013"],[210,"CDISCPILOT01","710","1129","","SCREEN FAILURE","SCREEN FAILURE","DISPOSITION EVENT","SCREENING 1","05-MAR-2013","05-MAR-2013",""],[211,"CDISCPILOT01","710","1137"," 7","ADVERSE EVENT","ADVERSE EVENT","DISPOSITION EVENT","WEEK 6","13-NOV-2013","13-NOV-2013",""],[212,"CDISCPILOT01","710","1142"," 9","ADVERSE EVENT","ADVERSE EVENT","DISPOSITION EVENT","WEEK 4","23-OCT-2012","23-OCT-2012",""],[213,"CDISCPILOT01","710","1149","","SCREEN FAILURE","SCREEN FAILURE","DISPOSITION EVENT","SCREENING 1","16-NOV-2013","16-NOV-2013",""],[214,"CDISCPILOT01","710","1154"," 4","ADVERSE EVENT","ADVERSE EVENT","DISPOSITION EVENT","WEEK 6","09-MAY-2014","09-MAY-2014",""],[215,"CDISCPILOT01","710","1166","10","ADVERSE EVENT","ADVERSE EVENT","DISPOSITION EVENT","WEEK 16","30-MAR-2013","30-MAR-2013",""],[216,"CDISCPILOT01","710","1183","","PROTOCOL COMPLETED","COMPLETED","DISPOSITION EVENT","WEEK 26","17-MAY-2014","17-MAY-2014",""],[217,"CDISCPILOT01","710","1187","","PROTOCOL COMPLETED","COMPLETED","DISPOSITION EVENT","WEEK 26","12-MAY-2013","12-MAY-2013",""],[218,"CDISCPILOT01","710","1235","","PROTOCOL COMPLETED","COMPLETED","DISPOSITION EVENT","WEEK 26","27-MAR-2013","27-MAR-2013",""],[219,"CDISCPILOT01","710","1249","","PROTOCOL COMPLETED","COMPLETED","DISPOSITION EVENT","WEEK 26","28-JUN-2014","28-JUN-2014",""],[220,"CDISCPILOT01","710","1257","","SCREEN FAILURE","SCREEN FAILURE","DISPOSITION EVENT","SCREENING 1","29-NOV-2013","29-NOV-2013",""],[221,"CDISCPILOT01","710","1264","16","ADVERSE EVENT","ADVERSE EVENT","DISPOSITION EVENT","WEEK 20","12-OCT-2013","12-OCT-2013",""],[222,"CDISCPILOT01","710","1270"," 5","ADVERSE EVENT","ADVERSE EVENT","DISPOSITION EVENT","WEEK 2","01-MAR-2014","01-MAR-2014",""],[223,"CDISCPILOT01","710","1271","12","ADVERSE EVENT","ADVERSE EVENT","DISPOSITION EVENT","WEEK 8","02-DEC-2012","02-DEC-2012",""],[224,"CDISCPILOT01","710","1278","10","ADVERSE EVENT","ADVERSE EVENT","DISPOSITION EVENT","WEEK 12","03-MAR-2013","03-MAR-2013",""],[225,"CDISCPILOT01","710","1300"," 4","ADVERSE EVENT","ADVERSE EVENT","DISPOSITION EVENT","WEEK 12","19-FEB-2013","19-FEB-2013",""],[226,"CDISCPILOT01","710","1314","","PATIENT REFUSES TO CONTINUE","WITHDRAWAL BY SUBJECT","DISPOSITION EVENT","AMBUL ECG REMOVAL","25-MAY-2013","25-MAY-2013",""],[227,"CDISCPILOT01","710","1315"," 3","ADVERSE EVENT","ADVERSE EVENT","DISPOSITION EVENT","WEEK 20","16-JUL-2013","16-JUL-2013",""],[228,"CDISCPILOT01","710","1337","","SCREEN FAILURE","SCREEN FAILURE","DISPOSITION EVENT","SCREENING 1","30-DEC-2013","30-DEC-2013",""],[229,"CDISCPILOT01","710","1354","","PROTOCOL COMPLETED","COMPLETED","DISPOSITION EVENT","WEEK 26","01-MAY-2013","01-MAY-2013",""],[230,"CDISCPILOT01","710","1358","","CAREGIVER WAS HOSPITALIZED;SEE COMMENTS","WITHDRAWAL BY SUBJECT","DISPOSITION EVENT","WEEK 24","12-MAR-2013","12-MAR-2013",""],[231,"CDISCPILOT01","710","1368","","PROTOCOL COMPLETED","COMPLETED","DISPOSITION EVENT","WEEK 26","24-APR-2014","24-APR-2014",""],[232,"CDISCPILOT01","710","1376","","SCREEN FAILURE","SCREEN FAILURE","DISPOSITION EVENT","SCREENING 1","21-APR-2014","21-APR-2014",""],[233,"CDISCPILOT01","710","1380","","SCREEN FAILURE","SCREEN FAILURE","DISPOSITION EVENT","SCREENING 1","02-JUN-2013","02-JUN-2013",""],[234,"CDISCPILOT01","710","1385","15","ADVERSE EVENT","ADVERSE EVENT","DISPOSITION EVENT","WEEK 16","18-FEB-2013","18-FEB-2013",""],[235,"CDISCPILOT01","710","1408","","PROTOCOL COMPLETED","COMPLETED","DISPOSITION EVENT","WEEK 26","12-JUL-2013","12-JUL-2013",""],[236,"CDISCPILOT01","710","1443","","SCREEN FAILURE","SCREEN FAILURE","DISPOSITION EVENT","SCREENING 1","13-DEC-2013","13-DEC-2013",""],[237,"CDISCPILOT01","711","1012"," 9","ADVERSE EVENT","ADVERSE EVENT","DISPOSITION EVENT","WEEK 4","02-MAY-2013","02-MAY-2013",""],[238,"CDISCPILOT01","711","1012","","FINAL RETRIEVAL VISIT","FINAL RETRIEVAL VISIT","OTHER EVENT","RETRIEVAL","18-SEP-2013","18-SEP-2013",""],[239,"CDISCPILOT01","711","1022","","SCREEN FAILURE","SCREEN FAILURE","DISPOSITION EVENT","SCREENING 1","17-MAR-2014","17-MAR-2014",""],[240,"CDISCPILOT01","711","1036","","PROTOCOL COMPLETED","COMPLETED","DISPOSITION EVENT","WEEK 26","10-FEB-2013","10-FEB-2013",""],[241,"CDISCPILOT01","711","1143","25","ADVERSE EVENT","ADVERSE EVENT","DISPOSITION EVENT","WEEK 12","01-JUN-2013","01-JUN-2013",""],[242,"CDISCPILOT01","711","1143","","FINAL RETRIEVAL VISIT","FINAL RETRIEVAL VISIT","OTHER EVENT","RETRIEVAL","22-SEP-2013","22-SEP-2013",""],[243,"CDISCPILOT01","711","1163","","SCREEN FAILURE","SCREEN FAILURE","DISPOSITION EVENT","SCREENING 1","08-NOV-2012","08-NOV-2012",""],[244,"CDISCPILOT01","711","1173","","SCREEN FAILURE","SCREEN FAILURE","DISPOSITION EVENT","SCREENING 1","04-OCT-2012","04-OCT-2012",""],[245,"CDISCPILOT01","711","1226","","SCREEN FAILURE","SCREEN FAILURE","DISPOSITION EVENT","SCREENING 1","24-OCT-2013","24-OCT-2013",""],[246,"CDISCPILOT01","711","1251","","SCREEN FAILURE","SCREEN FAILURE","DISPOSITION EVENT","SCREENING 1","28-FEB-2014","28-FEB-2014",""],[247,"CDISCPILOT01","711","1283","","SCREEN FAILURE","SCREEN FAILURE","DISPOSITION EVENT","SCREENING 1","27-MAR-2014","27-MAR-2014",""],[248,"CDISCPILOT01","711","1284","","SCREEN FAILURE","SCREEN FAILURE","DISPOSITION EVENT","SCREENING 1","05-AUG-2013","05-AUG-2013",""],[249,"CDISCPILOT01","711","1290","","SCREEN FAILURE","SCREEN FAILURE","DISPOSITION EVENT","SCREENING 1","20-DEC-2013","20-DEC-2013",""],[250,"CDISCPILOT01","711","1433","15","ADVERSE EVENT","ADVERSE EVENT","DISPOSITION EVENT","WEEK 2","06-FEB-2013","06-FEB-2013",""],[251,"CDISCPILOT01","713","1043","","PROTOCOL COMPLETED","COMPLETED","DISPOSITION EVENT","WEEK 26","24-MAR-2014","24-MAR-2014",""],[252,"CDISCPILOT01","713","1073","","PROTOCOL COMPLETED","COMPLETED","DISPOSITION EVENT","WEEK 26","05-OCT-2014","05-OCT-2014",""],[253,"CDISCPILOT01","713","1106","","PROTOCOL COMPLETED","COMPLETED","DISPOSITION EVENT","WEEK 26","06-MAY-2013","06-MAY-2013",""],[254,"CDISCPILOT01","713","1141"," 6","ADVERSE EVENT","ADVERSE EVENT","DISPOSITION EVENT","WEEK 6","06-AUG-2013","06-AUG-2013",""],[255,"CDISCPILOT01","713","1179","","PROTOCOL COMPLETED","COMPLETED","DISPOSITION EVENT","WEEK 26","05-FEB-2014","05-FEB-2014",""],[256,"CDISCPILOT01","713","1209","","PROTOCOL COMPLETED","COMPLETED","DISPOSITION EVENT","WEEK 26","22-NOV-2013","22-NOV-2013",""],[257,"CDISCPILOT01","713","1256","","PROTOCOL COMPLETED","COMPLETED","DISPOSITION EVENT","WEEK 26","25-MAR-2013","25-MAR-2013",""],[258,"CDISCPILOT01","713","1269","","PROTOCOL COMPLETED","COMPLETED","DISPOSITION EVENT","WEEK 26","28-JUL-2014","28-JUL-2014",""],[259,"CDISCPILOT01","713","1448"," 8","ADVERSE EVENT","ADVERSE EVENT","DISPOSITION EVENT","WEEK 16","17-MAY-2014","17-MAY-2014",""],[260,"CDISCPILOT01","713","1448","","FINAL RETRIEVAL VISIT","FINAL RETRIEVAL VISIT","OTHER EVENT","RETRIEVAL","27-JUL-2014","27-JUL-2014",""],[261,"CDISCPILOT01","714","1035","","PROTOCOL COMPLETED","COMPLETED","DISPOSITION EVENT","WEEK 26","16-OCT-2014","16-OCT-2014",""],[262,"CDISCPILOT01","714","1068"," 9","ADVERSE EVENT","ADVERSE EVENT","DISPOSITION EVENT","WEEK 12","16-OCT-2013","16-OCT-2013",""],[263,"CDISCPILOT01","714","1195","","PROTOCOL COMPLETED","COMPLETED","DISPOSITION EVENT","WEEK 26","23-OCT-2013","23-OCT-2013",""],[264,"CDISCPILOT01","714","1288","","PROTOCOL COMPLETED","COMPLETED","DISPOSITION EVENT","WEEK 26","17-JUN-2014","17-JUN-2014",""],[265,"CDISCPILOT01","714","1375","","PROTOCOL COMPLETED","COMPLETED","DISPOSITION EVENT","WEEK 26","07-SEP-2013","07-SEP-2013",""],[266,"CDISCPILOT01","714","1425","","SPONSOR DECISION (STUDY OR PATIENT DISCONTINUED BY THE SPONSOR)","STUDY TERMINATED BY SPONSOR","DISPOSITION EVENT","WEEK 2","22-AUG-2013","22-AUG-2013",""],[267,"CDISCPILOT01","715","1085","","PROTOCOL COMPLETED","COMPLETED","DISPOSITION EVENT","WEEK 26","18-AUG-2013","18-AUG-2013",""],[268,"CDISCPILOT01","715","1107"," 1","ADVERSE EVENT","ADVERSE EVENT","DISPOSITION EVENT","WEEK 12","13-MAY-2013","13-MAY-2013",""],[269,"CDISCPILOT01","715","1107","","FINAL RETRIEVAL VISIT","FINAL RETRIEVAL VISIT","OTHER EVENT","RETRIEVAL","14-AUG-2013","14-AUG-2013",""],[270,"CDISCPILOT01","715","1134","","SCREEN FAILURE","SCREEN FAILURE","DISPOSITION EVENT","SCREENING 1","17-APR-2014","17-APR-2014",""],[271,"CDISCPILOT01","715","1155","","CAREGIVER WITHDREW FROM STUDY","WITHDRAWAL BY SUBJECT","DISPOSITION EVENT","WEEK 6","26-APR-2014","26-APR-2014",""],[272,"CDISCPILOT01","715","1207","","PROTOCOL COMPLETED","COMPLETED","DISPOSITION EVENT","WEEK 26","01-JUN-2013","01-JUN-2013",""],[273,"CDISCPILOT01","715","1225","","SCREEN FAILURE","SCREEN FAILURE","DISPOSITION EVENT","SCREENING 1","22-JAN-2013","22-JAN-2013",""],[274,"CDISCPILOT01","715","1319","","TOO MUCH TROUBLE FOR CAREGIVER","WITHDRAWAL BY SUBJECT","DISPOSITION EVENT","WEEK 4","18-MAR-2013","18-MAR-2013",""],[275,"CDISCPILOT01","715","1321"," 3","ADVERSE EVENT","ADVERSE EVENT","DISPOSITION EVENT","WEEK 12","22-APR-2014","22-APR-2014",""],[276,"CDISCPILOT01","715","1333","","SCREEN FAILURE","SCREEN FAILURE","DISPOSITION EVENT","SCREENING 1","03-JUN-2013","03-JUN-2013",""],[277,"CDISCPILOT01","715","1397","","PROTOCOL COMPLETED","COMPLETED","DISPOSITION EVENT","WEEK 26","03-OCT-2013","03-OCT-2013",""],[278,"CDISCPILOT01","715","1405"," 3","ADVERSE EVENT","ADVERSE EVENT","DISPOSITION EVENT","WEEK 2","13-JUL-2013","13-JUL-2013",""],[279,"CDISCPILOT01","715","1405","","FINAL RETRIEVAL VISIT","FINAL RETRIEVAL VISIT","OTHER EVENT","RETRIEVAL","11-JAN-2014","11-JAN-2014",""],[280,"CDISCPILOT01","715","1407","","SCREEN FAILURE","SCREEN FAILURE","DISPOSITION EVENT","SCREENING 1","24-OCT-2012","24-OCT-2012",""],[281,"CDISCPILOT01","716","1003","","SCREEN FAILURE","SCREEN FAILURE","DISPOSITION EVENT","SCREENING 1","29-MAR-2014","29-MAR-2014",""],[282,"CDISCPILOT01","716","1024","","PROTOCOL COMPLETED","COMPLETED","DISPOSITION EVENT","WEEK 26","20-JAN-2013","20-JAN-2013",""],[283,"CDISCPILOT01","716","1026","","PROTOCOL COMPLETED","COMPLETED","DISPOSITION EVENT","WEEK 26","16-OCT-2014","16-OCT-2014",""],[284,"CDISCPILOT01","716","1030","","PT KEPT REMOVING PATCHES","WITHDRAWAL BY SUBJECT","DISPOSITION EVENT","WEEK 2","10-JAN-2014","10-JAN-2014",""],[285,"CDISCPILOT01","716","1044","","PROTOCOL COMPLETED","COMPLETED","DISPOSITION EVENT","WEEK 26","03-NOV-2013","03-NOV-2013",""],[286,"CDISCPILOT01","716","1061","","SCREEN FAILURE","SCREEN FAILURE","DISPOSITION EVENT","SCREENING 1","14-FEB-2014","14-FEB-2014",""],[287,"CDISCPILOT01","716","1063","17","ADVERSE EVENT","ADVERSE EVENT","DISPOSITION EVENT","WEEK 16","28-AUG-2013","28-AUG-2013",""],[288,"CDISCPILOT01","716","1063","","FINAL RETRIEVAL VISIT","FINAL RETRIEVAL VISIT","OTHER EVENT","RETRIEVAL","17-NOV-2013","17-NOV-2013",""],[289,"CDISCPILOT01","716","1071","12","ADVERSE EVENT","ADVERSE EVENT","DISPOSITION EVENT","WEEK 8","01-AUG-2013","01-AUG-2013",""],[290,"CDISCPILOT01","716","1071","","FINAL RETRIEVAL VISIT","FINAL RETRIEVAL VISIT","OTHER EVENT","RETRIEVAL","16-DEC-2013","16-DEC-2013",""],[291,"CDISCPILOT01","716","1094","11","ADVERSE EVENT","ADVERSE EVENT","DISPOSITION EVENT","WEEK 6","26-JAN-2013","26-JAN-2013",""],[292,"CDISCPILOT01","716","1094","","FINAL RETRIEVAL VISIT","FINAL RETRIEVAL VISIT","OTHER EVENT","RETRIEVAL","22-JUN-2013","22-JUN-2013",""],[293,"CDISCPILOT01","716","1103","","PROTOCOL COMPLETED","COMPLETED","DISPOSITION EVENT","WEEK 26","20-SEP-2014","20-SEP-2014",""],[294,"CDISCPILOT01","716","1108","","PROTOCOL COMPLETED","COMPLETED","DISPOSITION EVENT","WEEK 26","10-AUG-2013","10-AUG-2013",""],[295,"CDISCPILOT01","716","1151"," 6","ADVERSE EVENT","ADVERSE EVENT","DISPOSITION EVENT","WEEK 16","07-JUN-2013","07-JUN-2013",""],[296,"CDISCPILOT01","716","1151","","FINAL RETRIEVAL VISIT","FINAL RETRIEVAL VISIT","OTHER EVENT","RETRIEVAL","13-AUG-2013","13-AUG-2013",""],[297,"CDISCPILOT01","716","1157","","PROTOCOL COMPLETED","COMPLETED","DISPOSITION EVENT","WEEK 26","05-APR-2014","05-APR-2014",""],[298,"CDISCPILOT01","716","1160","","PROTOCOL COMPLETED","COMPLETED","DISPOSITION EVENT","WEEK 26","11-OCT-2013","11-OCT-2013",""],[299,"CDISCPILOT01","716","1167","","PROTOCOL COMPLETED","COMPLETED","DISPOSITION EVENT","WEEK 26","13-APR-2013","13-APR-2013",""],[300,"CDISCPILOT01","716","1177","","PROTOCOL COMPLETED","COMPLETED","DISPOSITION EVENT","WEEK 26","05-MAR-2015","05-MAR-2015",""],[301,"CDISCPILOT01","716","1189","11","ADVERSE EVENT","ADVERSE EVENT","DISPOSITION EVENT","WEEK 20","03-MAR-2013","03-MAR-2013",""],[302,"CDISCPILOT01","716","1189","","FINAL RETRIEVAL VISIT","FINAL RETRIEVAL VISIT","OTHER EVENT","RETRIEVAL","08-APR-2013","08-APR-2013",""],[303,"CDISCPILOT01","716","1229"," 5","ADVERSE EVENT","ADVERSE EVENT","DISPOSITION EVENT","WEEK 6","02-APR-2013","02-APR-2013",""],[304,"CDISCPILOT01","716","1244","","SCREEN FAILURE","SCREEN FAILURE","DISPOSITION EVENT","SCREENING 1","15-AUG-2013","15-AUG-2013",""],[305,"CDISCPILOT01","716","1298","12","ADVERSE EVENT","ADVERSE EVENT","DISPOSITION EVENT","WEEK 12","06-JUL-2013","06-JUL-2013",""],[306,"CDISCPILOT01","716","1298","","FINAL RETRIEVAL VISIT","FINAL RETRIEVAL VISIT","OTHER EVENT","RETRIEVAL","07-OCT-2013","07-OCT-2013",""],[307,"CDISCPILOT01","716","1305","","SCREEN FAILURE","SCREEN FAILURE","DISPOSITION EVENT","SCREENING 1","06-AUG-2013","06-AUG-2013",""],[308,"CDISCPILOT01","716","1308","","PLACED IN NURSING HOME","WITHDRAWAL BY SUBJECT","DISPOSITION EVENT","WEEK 6","07-OCT-2013","07-OCT-2013",""],[309,"CDISCPILOT01","716","1311","","INSTITUTIONALIZED","WITHDRAWAL BY SUBJECT","DISPOSITION EVENT","WEEK 20","30-SEP-2014","30-SEP-2014",""],[310,"CDISCPILOT01","716","1311","","FINAL RETRIEVAL VISIT","FINAL RETRIEVAL VISIT","OTHER EVENT","RETRIEVAL","15-NOV-2014","15-NOV-2014",""],[311,"CDISCPILOT01","716","1331","","SCREEN FAILURE","SCREEN FAILURE","DISPOSITION EVENT","SCREENING 1","25-NOV-2013","25-NOV-2013",""],[312,"CDISCPILOT01","716","1364","","PROTOCOL COMPLETED","COMPLETED","DISPOSITION EVENT","WEEK 26","09-JAN-2014","09-JAN-2014",""],[313,"CDISCPILOT01","716","1373"," 6","ADVERSE EVENT","ADVERSE EVENT","DISPOSITION EVENT","WEEK 12","28-FEB-2013","28-FEB-2013",""],[314,"CDISCPILOT01","716","1418","","PROTOCOL COMPLETED","COMPLETED","DISPOSITION EVENT","WEEK 26","20-NOV-2013","20-NOV-2013",""],[315,"CDISCPILOT01","716","1441","","PROTOCOL COMPLETED","COMPLETED","DISPOSITION EVENT","WEEK 26","22-JUL-2014","22-JUL-2014",""],[316,"CDISCPILOT01","716","1447","","PROTOCOL COMPLETED","COMPLETED","DISPOSITION EVENT","WEEK 26","17-JUN-2014","17-JUN-2014",""],[317,"CDISCPILOT01","717","1004","","PROTOCOL COMPLETED","COMPLETED","DISPOSITION EVENT","WEEK 26","16-JUL-2014","16-JUL-2014",""],[318,"CDISCPILOT01","717","1109","","PROTOCOL COMPLETED","COMPLETED","DISPOSITION EVENT","WEEK 26","28-JUL-2014","28-JUL-2014",""],[319,"CDISCPILOT01","717","1174","","PROTOCOL COMPLETED","COMPLETED","DISPOSITION EVENT","WEEK 26","24-JUL-2013","24-JUL-2013",""],[320,"CDISCPILOT01","717","1201","","LACK OF EFFICACY, PATIENT CAREGIVER PERCEPTION","LACK OF EFFICACY","DISPOSITION EVENT","WEEK 8","21-FEB-2014","21-FEB-2014",""],[321,"CDISCPILOT01","717","1344","","LACK OF EFFICACY, PATIENT CAREGIVER PERCEPTION","LACK OF EFFICACY","DISPOSITION EVENT","WEEK 8","14-MAR-2014","14-MAR-2014",""],[322,"CDISCPILOT01","717","1357","","SPONSOR DECISION (STUDY OR PATIENT DISCONTINUED BY THE SPONSOR)","STUDY TERMINATED BY SPONSOR","DISPOSITION EVENT","WEEK 24","20-OCT-2013","20-OCT-2013",""],[323,"CDISCPILOT01","717","1446","","PROTOCOL COMPLETED","COMPLETED","DISPOSITION EVENT","WEEK 26","04-MAR-2014","04-MAR-2014",""],[324,"CDISCPILOT01","718","1066","12","ADVERSE EVENT","ADVERSE EVENT","DISPOSITION EVENT","WEEK 2","30-JUL-2013","30-JUL-2013",""],[325,"CDISCPILOT01","718","1079"," 9","ADVERSE EVENT","ADVERSE EVENT","DISPOSITION EVENT","WEEK 6","06-NOV-2012","06-NOV-2012",""],[326,"CDISCPILOT01","718","1079","","FINAL RETRIEVAL VISIT","FINAL RETRIEVAL VISIT","OTHER EVENT","RETRIEVAL","05-MAR-2013","05-MAR-2013",""],[327,"CDISCPILOT01","718","1101","","SPONSOR DECISION (STUDY OR PATIENT DISCONTINUED BY THE SPONSOR)","STUDY TERMINATED BY SPONSOR","DISPOSITION EVENT","WEEK 24","02-AUG-2013","02-AUG-2013",""],[328,"CDISCPILOT01","718","1139","","PROTOCOL COMPLETED","COMPLETED","DISPOSITION EVENT","WEEK 26","17-NOV-2013","17-NOV-2013",""],[329,"CDISCPILOT01","718","1150","","PROTOCOL COMPLETED","COMPLETED","DISPOSITION EVENT","WEEK 26","31-JUL-2013","31-JUL-2013",""],[330,"CDISCPILOT01","718","1170","12","ADVERSE EVENT","ADVERSE EVENT","DISPOSITION EVENT","WEEK 4","03-NOV-2013","03-NOV-2013",""],[331,"CDISCPILOT01","718","1170","","FINAL RETRIEVAL VISIT","FINAL RETRIEVAL VISIT","OTHER EVENT","RETRIEVAL","15-MAR-2014","15-MAR-2014",""],[332,"CDISCPILOT01","718","1172","","PATIENT TO BEGIN COURSE OF ARICEPT","WITHDRAWAL BY SUBJECT","DISPOSITION EVENT","WEEK 12","29-NOV-2013","29-NOV-2013",""],[333,"CDISCPILOT01","718","1172","","FINAL RETRIEVAL VISIT","FINAL RETRIEVAL VISIT","OTHER EVENT","RETRIEVAL","21-MAR-2014","21-MAR-2014",""],[334,"CDISCPILOT01","718","1250"," 8","ADVERSE EVENT","ADVERSE EVENT","DISPOSITION EVENT","WEEK 20","08-FEB-2014","08-FEB-2014",""],[335,"CDISCPILOT01","718","1250","","FINAL RETRIEVAL VISIT","FINAL RETRIEVAL VISIT","OTHER EVENT","RETRIEVAL","08-MAR-2014","08-MAR-2014",""],[336,"CDISCPILOT01","718","1254","","PROTOCOL COMPLETED","COMPLETED","DISPOSITION EVENT","WEEK 26","09-JAN-2014","09-JAN-2014",""],[337,"CDISCPILOT01","718","1328","","PATIENT UNABLE TO TOLERATE DERMAL IRRITATION AT PATCH SITE","WITHDRAWAL BY SUBJECT","DISPOSITION EVENT","WEEK 12","01-MAY-2013","01-MAY-2013",""],[338,"CDISCPILOT01","718","1328","","FINAL RETRIEVAL VISIT","FINAL RETRIEVAL VISIT","OTHER EVENT","RETRIEVAL","24-JUL-2013","24-JUL-2013",""],[339,"CDISCPILOT01","718","1355","","PROTOCOL COMPLETED","COMPLETED","DISPOSITION EVENT","WEEK 26","29-AUG-2013","29-AUG-2013",""],[340,"CDISCPILOT01","718","1371","10","ADVERSE EVENT","ADVERSE EVENT","DISPOSITION EVENT","WEEK 12","08-AUG-2013","08-AUG-2013",""],[341,"CDISCPILOT01","718","1427","","LACK OF EFFICACY, PATIENT CAREGIVER PERCEPTION","LACK OF EFFICACY","DISPOSITION EVENT","WEEK 8","18-FEB-2013","18-FEB-2013",""],[342,"CDISCPILOT01","718","1427","","FINAL RETRIEVAL VISIT","FINAL RETRIEVAL VISIT","OTHER EVENT","RETRIEVAL","03-JUN-2013","03-JUN-2013",""]]}}}}