{"creationDateTime":"2024-02-14T11:46:09","datasetJSONVersion":"1.0.0","fileOID":"CDISCPILOT01.ex","referenceData":{"studyOID":"CDISCPILOT01","metaDataVersionOID":"MDV.CDISCPILOT01","itemGroupData":{"IG.EX":{"records":591,"name":"EX","label":"Exposure (EX)","items":[{"OID":"ITEMGROUPDATASEQ","name":"ITEMGROUPDATASEQ","label":"Record Identifier","type":"integer"},{"OID":"IT.EX.STUDYID","name":"STUDYID","label":"Study Identifier","type":"string","length":12,"displayFormat":"."},{"OID":"IT.EX.SITEID","name":"SITEID","label":"Study Site Identifier","type":"string","length":3,"displayFormat":"."},{"OID":"IT.EX.SUBJID","name":"SUBJID","label":"Subject Identifier for the Study","type":"string","length":4,"displayFormat":"."},{"OID":"IT.EX.EXTRT","name":"EXTRT","label":"Treatment Name","type":"string","length":10,"displayFormat":"."},{"OID":"IT.EX.EXDSTXT","name":"EXDSTXT","label":"Exposure Dose Description","type":"string","length":2,"displayFormat":"."},{"OID":"IT.EX.EXDOSU","name":"EXDOSU","label":"Exposure Dose Unit","type":"string","length":2,"displayFormat":"."},{"OID":"IT.EX.EXDOSFRM","name":"EXDOSFRM","label":"Exposure Dose Form","type":"string","length":5,"displayFormat":"."},{"OID":"IT.EX.EXDOSFRQ","name":"EXDOSFRQ","label":"Exposure Dosing Frequency per Interval","type":"string","length":2,"displayFormat":"."},{"OID":"IT.EX.EXROUTE","name":"EXROUTE","label":"Exposure Route of Administration","type":"string","length":11,"displayFormat":"."},{"OID":"IT.EX.VISIT","name":"VISIT","label":"Visit Name","type":"string","length":19,"displayFormat":"."},{"OID":"IT.EX.EXSTDAT","name":"EXSTDAT","label":"Exposure Start Date","type":"string","length":11,"displayFormat":"."},{"OID":"IT.EX.EXENDAT","name":"EXENDAT","label":"Exposure End Date","type":"string","length":11,"displayFormat":"."}],"itemData":[[1,"CDISCPILOT01","701","1015","PLACEBO","0","mg","PATCH","QD","TRANSDERMAL","BASELINE","02-JAN-2014","16-JAN-2014"],[2,"CDISCPILOT01","701","1015","PLACEBO","0","mg","PATCH","QD","TRANSDERMAL","WEEK 2","17-JAN-2014","18-JUN-2014"],[3,"CDISCPILOT01","701","1015","PLACEBO","0","mg","PATCH","QD","TRANSDERMAL","WEEK 24","19-JUN-2014","02-JUL-2014"],[4,"CDISCPILOT01","701","1023","PLACEBO","0","mg","PATCH","QD","TRANSDERMAL","BASELINE","05-AUG-2012","27-AUG-2012"],[5,"CDISCPILOT01","701","1023","PLACEBO","0","mg","PATCH","QD","TRANSDERMAL","WEEK 2","28-AUG-2012","01-SEP-2012"],[6,"CDISCPILOT01","701","1028","XANOMELINE","54","mg","PATCH","QD","TRANSDERMAL","BASELINE","19-JUL-2013","01-AUG-2013"],[7,"CDISCPILOT01","701","1028","XANOMELINE","81","mg","PATCH","QD","TRANSDERMAL","WEEK 2","02-AUG-2013","06-JAN-2014"],[8,"CDISCPILOT01","701","1028","XANOMELINE","54","mg","PATCH","QD","TRANSDERMAL","WEEK 24","07-JAN-2014","14-JAN-2014"],[9,"CDISCPILOT01","701","1033","XANOMELINE","54","mg","PATCH","QD","TRANSDERMAL","BASELINE","18-MAR-2014","31-MAR-2014"],[10,"CDISCPILOT01","701","1034","XANOMELINE","54","mg","PATCH","QD","TRANSDERMAL","BASELINE","01-JUL-2014","15-JUL-2014"],[11,"CDISCPILOT01","701","1034","XANOMELINE","81","mg","PATCH","QD","TRANSDERMAL","WEEK 2","16-JUL-2014","17-DEC-2014"],[12,"CDISCPILOT01","701","1034","XANOMELINE","54","mg","PATCH","QD","TRANSDERMAL","WEEK 24","18-DEC-2014","30-DEC-2014"],[13,"CDISCPILOT01","701","1047","PLACEBO","0","mg","PATCH","QD","TRANSDERMAL","BASELINE","12-FEB-2013","25-FEB-2013"],[14,"CDISCPILOT01","701","1047","PLACEBO","0","mg","PATCH","QD","TRANSDERMAL","WEEK 2","26-FEB-2013","09-MAR-2013"],[15,"CDISCPILOT01","701","1097","XANOMELINE","54","mg","PATCH","QD","TRANSDERMAL","BASELINE","01-JAN-2014","15-JAN-2014"],[16,"CDISCPILOT01","701","1097","XANOMELINE","54","mg","PATCH","QD","TRANSDERMAL","WEEK 2","16-JAN-2014","18-JUN-2014"],[17,"CDISCPILOT01","701","1097","XANOMELINE","54","mg","PATCH","QD","TRANSDERMAL","WEEK 24","19-JUN-2014","09-JUL-2014"],[18,"CDISCPILOT01","701","1111","XANOMELINE","54","mg","PATCH","QD","TRANSDERMAL","BASELINE","07-SEP-2012","16-SEP-2012"],[19,"CDISCPILOT01","701","1115","XANOMELINE","54","mg","PATCH","QD","TRANSDERMAL","BASELINE","30-NOV-2012","13-DEC-2012"],[20,"CDISCPILOT01","701","1115","XANOMELINE","54","mg","PATCH","QD","TRANSDERMAL","WEEK 2","14-DEC-2012","23-JAN-2013"],[21,"CDISCPILOT01","701","1118","PLACEBO","0","mg","PATCH","QD","TRANSDERMAL","BASELINE","12-MAR-2014","26-MAR-2014"],[22,"CDISCPILOT01","701","1118","PLACEBO","0","mg","PATCH","QD","TRANSDERMAL","WEEK 2","27-MAR-2014","27-AUG-2014"],[23,"CDISCPILOT01","701","1118","PLACEBO","0","mg","PATCH","QD","TRANSDERMAL","WEEK 24","28-AUG-2014","09-SEP-2014"],[24,"CDISCPILOT01","701","1130","PLACEBO","0","mg","PATCH","QD","TRANSDERMAL","BASELINE","15-FEB-2014","01-MAR-2014"],[25,"CDISCPILOT01","701","1130","PLACEBO","0","mg","PATCH","QD","TRANSDERMAL","WEEK 2","02-MAR-2014","02-AUG-2014"],[26,"CDISCPILOT01","701","1130","PLACEBO","0","mg","PATCH","QD","TRANSDERMAL","WEEK 24","03-AUG-2014","16-AUG-2014"],[27,"CDISCPILOT01","701","1133","XANOMELINE","54","mg","PATCH","QD","TRANSDERMAL","BASELINE","28-OCT-2012","12-NOV-2012"],[28,"CDISCPILOT01","701","1133","XANOMELINE","81","mg","PATCH","QD","TRANSDERMAL","WEEK 2","13-NOV-2012","18-APR-2013"],[29,"CDISCPILOT01","701","1133","XANOMELINE","54","mg","PATCH","QD","TRANSDERMAL","WEEK 24","19-APR-2013","28-APR-2013"],[30,"CDISCPILOT01","701","1146","XANOMELINE","54","mg","PATCH","QD","TRANSDERMAL","BASELINE","20-MAY-2013","03-JUN-2013"],[31,"CDISCPILOT01","701","1146","XANOMELINE","81","mg","PATCH","QD","TRANSDERMAL","WEEK 2","04-JUN-2013","26-JUN-2013"],[32,"CDISCPILOT01","701","1148","XANOMELINE","54","mg","PATCH","QD","TRANSDERMAL","BASELINE","23-AUG-2013","05-SEP-2013"],[33,"CDISCPILOT01","701","1148","XANOMELINE","81","mg","PATCH","QD","TRANSDERMAL","WEEK 2","06-SEP-2013","08-FEB-2014"],[34,"CDISCPILOT01","701","1148","XANOMELINE","54","mg","PATCH","QD","TRANSDERMAL","WEEK 24","09-FEB-2014","20-FEB-2014"],[35,"CDISCPILOT01","701","1153","PLACEBO","0","mg","PATCH","QD","TRANSDERMAL","BASELINE","23-SEP-2013","08-OCT-2013"],[36,"CDISCPILOT01","701","1153","PLACEBO","0","mg","PATCH","QD","TRANSDERMAL","WEEK 2","09-OCT-2013","11-MAR-2014"],[37,"CDISCPILOT01","701","1153","PLACEBO","0","mg","PATCH","QD","TRANSDERMAL","WEEK 24","12-MAR-2014","16-MAR-2014"],[38,"CDISCPILOT01","701","1180","XANOMELINE","54","mg","PATCH","QD","TRANSDERMAL","BASELINE","12-FEB-2013","25-FEB-2013"],[39,"CDISCPILOT01","701","1180","XANOMELINE","81","mg","PATCH","QD","TRANSDERMAL","WEEK 2","26-FEB-2013","18-MAR-2013"],[40,"CDISCPILOT01","701","1181","XANOMELINE","54","mg","PATCH","QD","TRANSDERMAL","BASELINE","05-DEC-2013","09-DEC-2013"],[41,"CDISCPILOT01","701","1188","XANOMELINE","54","mg","PATCH","QD","TRANSDERMAL","BASELINE","15-FEB-2013","02-MAR-2013"],[42,"CDISCPILOT01","701","1188","XANOMELINE","54","mg","PATCH","QD","TRANSDERMAL","WEEK 2","03-MAR-2013","24-MAR-2013"],[43,"CDISCPILOT01","701","1192","XANOMELINE","54","mg","PATCH","QD","TRANSDERMAL","BASELINE","22-JUL-2012","07-AUG-2012"],[44,"CDISCPILOT01","701","1192","XANOMELINE","54","mg","PATCH","QD","TRANSDERMAL","WEEK 2","08-AUG-2012","11-JAN-2013"],[45,"CDISCPILOT01","701","1192","XANOMELINE","54","mg","PATCH","QD","TRANSDERMAL","WEEK 24","12-JAN-2013","20-JAN-2013"],[46,"CDISCPILOT01","701","1203","PLACEBO","0","mg","PATCH","QD","TRANSDERMAL","BASELINE","02-FEB-2013","23-FEB-2013"],[47,"CDISCPILOT01","701","1203","PLACEBO","0","mg","PATCH","QD","TRANSDERMAL","WEEK 2","24-FEB-2013","22-JUL-2013"],[48,"CDISCPILOT01","701","1203","PLACEBO","0","mg","PATCH","QD","TRANSDERMAL","WEEK 24","23-JUL-2013","03-AUG-2013"],[49,"CDISCPILOT01","701","1211","XANOMELINE","54","mg","PATCH","QD","TRANSDERMAL","BASELINE","15-NOV-2012","28-NOV-2012"],[50,"CDISCPILOT01","701","1211","XANOMELINE","54","mg","PATCH","QD","TRANSDERMAL","WEEK 2","29-NOV-2012","12-JAN-2013"],[51,"CDISCPILOT01","701","1234","PLACEBO","0","mg","PATCH","QD","TRANSDERMAL","BASELINE","30-MAR-2013","21-APR-2013"],[52,"CDISCPILOT01","701","1234","PLACEBO","0","mg","PATCH","QD","TRANSDERMAL","WEEK 2","22-APR-2013","10-SEP-2013"],[53,"CDISCPILOT01","701","1234","PLACEBO","0","mg","PATCH","QD","TRANSDERMAL","WEEK 24","11-SEP-2013","22-SEP-2013"],[54,"CDISCPILOT01","701","1239","XANOMELINE","54","mg","PATCH","QD","TRANSDERMAL","BASELINE","11-JAN-2014","25-JAN-2014"],[55,"CDISCPILOT01","701","1239","XANOMELINE","81","mg","PATCH","QD","TRANSDERMAL","WEEK 2","26-JAN-2014","27-JUN-2014"],[56,"CDISCPILOT01","701","1239","XANOMELINE","54","mg","PATCH","QD","TRANSDERMAL","WEEK 24","28-JUN-2014","10-JUL-2014"],[57,"CDISCPILOT01","701","1275","XANOMELINE","54","mg","PATCH","QD","TRANSDERMAL","BASELINE","07-FEB-2014","22-FEB-2014"],[58,"CDISCPILOT01","701","1275","XANOMELINE","81","mg","PATCH","QD","TRANSDERMAL","WEEK 2","23-FEB-2014","31-MAY-2014"],[59,"CDISCPILOT01","701","1287","XANOMELINE","54","mg","PATCH","QD","TRANSDERMAL","BASELINE","25-JAN-2014","11-FEB-2014"],[60,"CDISCPILOT01","701","1287","XANOMELINE","81","mg","PATCH","QD","TRANSDERMAL","WEEK 2","12-FEB-2014","12-JUL-2014"],[61,"CDISCPILOT01","701","1287","XANOMELINE","54","mg","PATCH","QD","TRANSDERMAL","WEEK 24","13-JUL-2014","26-JUL-2014"],[62,"CDISCPILOT01","701","1294","XANOMELINE","54","mg","PATCH","QD","TRANSDERMAL","BASELINE","24-MAR-2013","10-APR-2013"],[63,"CDISCPILOT01","701","1294","XANOMELINE","54","mg","PATCH","QD","TRANSDERMAL","WEEK 2","11-APR-2013","14-JUN-2013"],[64,"CDISCPILOT01","701","1302","XANOMELINE","54","mg","PATCH","QD","TRANSDERMAL","BASELINE","29-AUG-2013","15-SEP-2013"],[65,"CDISCPILOT01","701","1302","XANOMELINE","81","mg","PATCH","QD","TRANSDERMAL","WEEK 2","16-SEP-2013","05-NOV-2013"],[66,"CDISCPILOT01","701","1317","XANOMELINE","54","mg","PATCH","QD","TRANSDERMAL","BASELINE","22-MAY-2014","05-JUN-2014"],[67,"CDISCPILOT01","701","1317","XANOMELINE","54","mg","PATCH","QD","TRANSDERMAL","WEEK 2","06-JUN-2014","06-NOV-2014"],[68,"CDISCPILOT01","701","1317","XANOMELINE","54","mg","PATCH","QD","TRANSDERMAL","WEEK 24","07-NOV-2014","20-NOV-2014"],[69,"CDISCPILOT01","701","1324","XANOMELINE","54","mg","PATCH","QD","TRANSDERMAL","BASELINE","02-OCT-2012","16-OCT-2012"],[70,"CDISCPILOT01","701","1324","XANOMELINE","54","mg","PATCH","QD","TRANSDERMAL","WEEK 2","17-OCT-2012","19-MAR-2013"],[71,"CDISCPILOT01","701","1324","XANOMELINE","54","mg","PATCH","QD","TRANSDERMAL","WEEK 24","20-MAR-2013","02-APR-2013"],[72,"CDISCPILOT01","701","1341","XANOMELINE","54","mg","PATCH","QD","TRANSDERMAL","BASELINE","05-JAN-2013","18-JAN-2013"],[73,"CDISCPILOT01","701","1341","XANOMELINE","54","mg","PATCH","QD","TRANSDERMAL","WEEK 2","19-JAN-2013","26-JAN-2013"],[74,"CDISCPILOT01","701","1345","PLACEBO","0","mg","PATCH","QD","TRANSDERMAL","BASELINE","08-OCT-2013","24-OCT-2013"],[75,"CDISCPILOT01","701","1345","PLACEBO","0","mg","PATCH","QD","TRANSDERMAL","WEEK 2","25-OCT-2013","18-MAR-2014"],[76,"CDISCPILOT01","701","1360","XANOMELINE","54","mg","PATCH","QD","TRANSDERMAL","BASELINE","31-JUL-2013","05-AUG-2013"],[77,"CDISCPILOT01","701","1363","PLACEBO","0","mg","PATCH","QD","TRANSDERMAL","BASELINE","30-MAY-2013","12-JUN-2013"],[78,"CDISCPILOT01","701","1363","PLACEBO","0","mg","PATCH","QD","TRANSDERMAL","WEEK 2","13-JUN-2013","13-NOV-2013"],[79,"CDISCPILOT01","701","1363","PLACEBO","0","mg","PATCH","QD","TRANSDERMAL","WEEK 24","14-NOV-2013","27-NOV-2013"],[80,"CDISCPILOT01","701","1383","XANOMELINE","54","mg","PATCH","QD","TRANSDERMAL","BASELINE","04-FEB-2013","19-FEB-2013"],[81,"CDISCPILOT01","701","1383","XANOMELINE","81","mg","PATCH","QD","TRANSDERMAL","WEEK 2","20-FEB-2013","30-JUL-2013"],[82,"CDISCPILOT01","701","1383","XANOMELINE","54","mg","PATCH","QD","TRANSDERMAL","WEEK 24","31-JUL-2013","06-AUG-2013"],[83,"CDISCPILOT01","701","1387","PLACEBO","0","mg","PATCH","QD","TRANSDERMAL","BASELINE","12-MAR-2014","25-MAR-2014"],[84,"CDISCPILOT01","701","1392","PLACEBO","0","mg","PATCH","QD","TRANSDERMAL","BASELINE","28-OCT-2012","11-NOV-2012"],[85,"CDISCPILOT01","701","1392","PLACEBO","0","mg","PATCH","QD","TRANSDERMAL","WEEK 2","12-NOV-2012","15-APR-2013"],[86,"CDISCPILOT01","701","1392","PLACEBO","0","mg","PATCH","QD","TRANSDERMAL","WEEK 24","16-APR-2013","28-APR-2013"],[87,"CDISCPILOT01","701","1415","PLACEBO","0","mg","PATCH","QD","TRANSDERMAL","BASELINE","23-SEP-2013","07-OCT-2013"],[88,"CDISCPILOT01","701","1415","PLACEBO","0","mg","PATCH","QD","TRANSDERMAL","WEEK 2","08-OCT-2013","10-MAR-2014"],[89,"CDISCPILOT01","701","1415","PLACEBO","0","mg","PATCH","QD","TRANSDERMAL","WEEK 24","11-MAR-2014","24-MAR-2014"],[90,"CDISCPILOT01","701","1429","XANOMELINE","54","mg","PATCH","QD","TRANSDERMAL","BASELINE","19-MAR-2013","02-APR-2013"],[91,"CDISCPILOT01","701","1429","XANOMELINE","54","mg","PATCH","QD","TRANSDERMAL","WEEK 2","03-APR-2013","30-APR-2013"],[92,"CDISCPILOT01","701","1440","PLACEBO","0","mg","PATCH","QD","TRANSDERMAL","BASELINE","08-AUG-2013","23-AUG-2013"],[93,"CDISCPILOT01","701","1440","PLACEBO","0","mg","PATCH","QD","TRANSDERMAL","WEEK 2","24-AUG-2013","22-JAN-2014"],[94,"CDISCPILOT01","701","1440","PLACEBO","0","mg","PATCH","QD","TRANSDERMAL","WEEK 24","23-JAN-2014","05-FEB-2014"],[95,"CDISCPILOT01","701","1442","XANOMELINE","54","mg","PATCH","QD","TRANSDERMAL","BASELINE","26-OCT-2013","09-NOV-2013"],[96,"CDISCPILOT01","701","1442","XANOMELINE","54","mg","PATCH","QD","TRANSDERMAL","WEEK 2","10-NOV-2013","17-APR-2014"],[97,"CDISCPILOT01","701","1442","XANOMELINE","54","mg","PATCH","QD","TRANSDERMAL","WEEK 24","18-APR-2014","26-APR-2014"],[98,"CDISCPILOT01","701","1444","XANOMELINE","54","mg","PATCH","QD","TRANSDERMAL","BASELINE","05-JAN-2013","18-JAN-2013"],[99,"CDISCPILOT01","701","1444","XANOMELINE","81","mg","PATCH","QD","TRANSDERMAL","WEEK 2","19-JAN-2013","12-FEB-2013"],[100,"CDISCPILOT01","702","1082","XANOMELINE","54","mg","PATCH","QD","TRANSDERMAL","BASELINE","26-JUL-2013","08-AUG-2013"],[101,"CDISCPILOT01","702","1082","XANOMELINE","54","mg","PATCH","QD","TRANSDERMAL","WEEK 2","09-AUG-2013","13-OCT-2013"],[102,"CDISCPILOT01","703","1042","PLACEBO","0","mg","PATCH","QD","TRANSDERMAL","BASELINE","02-MAR-2013","14-MAR-2013"],[103,"CDISCPILOT01","703","1042","PLACEBO","0","mg","PATCH","QD","TRANSDERMAL","WEEK 2","15-MAR-2013","09-AUG-2013"],[104,"CDISCPILOT01","703","1042","PLACEBO","0","mg","PATCH","QD","TRANSDERMAL","WEEK 24","10-AUG-2013","31-AUG-2013"],[105,"CDISCPILOT01","703","1076","XANOMELINE","54","mg","PATCH","QD","TRANSDERMAL","BASELINE","25-OCT-2013","06-NOV-2013"],[106,"CDISCPILOT01","703","1076","XANOMELINE","81","mg","PATCH","QD","TRANSDERMAL","WEEK 2","07-NOV-2013","24-DEC-2013"],[107,"CDISCPILOT01","703","1086","XANOMELINE","54","mg","PATCH","QD","TRANSDERMAL","BASELINE","02-SEP-2012","16-SEP-2012"],[108,"CDISCPILOT01","703","1086","XANOMELINE","54","mg","PATCH","QD","TRANSDERMAL","WEEK 2","17-SEP-2012","04-DEC-2012"],[109,"CDISCPILOT01","703","1096","PLACEBO","0","mg","PATCH","QD","TRANSDERMAL","BASELINE","25-JAN-2013","09-FEB-2013"],[110,"CDISCPILOT01","703","1096","PLACEBO","0","mg","PATCH","QD","TRANSDERMAL","WEEK 2","10-FEB-2013","16-MAR-2013"],[111,"CDISCPILOT01","703","1100","PLACEBO","0","mg","PATCH","QD","TRANSDERMAL","BASELINE","13-MAR-2013","29-MAR-2013"],[112,"CDISCPILOT01","703","1100","PLACEBO","0","mg","PATCH","QD","TRANSDERMAL","WEEK 2","30-MAR-2013","28-AUG-2013"],[113,"CDISCPILOT01","703","1100","PLACEBO","0","mg","PATCH","QD","TRANSDERMAL","WEEK 24","29-AUG-2013","14-SEP-2013"],[114,"CDISCPILOT01","703","1119","XANOMELINE","54","mg","PATCH","QD","TRANSDERMAL","BASELINE","20-FEB-2013","10-MAR-2013"],[115,"CDISCPILOT01","703","1119","XANOMELINE","54","mg","PATCH","QD","TRANSDERMAL","WEEK 2","11-MAR-2013","13-JUN-2013"],[116,"CDISCPILOT01","703","1175","PLACEBO","0","mg","PATCH","QD","TRANSDERMAL","BASELINE","20-DEC-2013","26-DEC-2013"],[117,"CDISCPILOT01","703","1182","XANOMELINE","54","mg","PATCH","QD","TRANSDERMAL","BASELINE","17-OCT-2013","31-OCT-2013"],[118,"CDISCPILOT01","703","1182","XANOMELINE","54","mg","PATCH","QD","TRANSDERMAL","WEEK 2","01-NOV-2013","11-DEC-2013"],[119,"CDISCPILOT01","703","1197","XANOMELINE","54","mg","PATCH","QD","TRANSDERMAL","BASELINE","16-JUN-2013","29-JUN-2013"],[120,"CDISCPILOT01","703","1210","PLACEBO","0","mg","PATCH","QD","TRANSDERMAL","BASELINE","16-MAR-2013","30-MAR-2013"],[121,"CDISCPILOT01","703","1210","PLACEBO","0","mg","PATCH","QD","TRANSDERMAL","WEEK 2","31-MAR-2013","24-AUG-2013"],[122,"CDISCPILOT01","703","1210","PLACEBO","0","mg","PATCH","QD","TRANSDERMAL","WEEK 24","25-AUG-2013","06-SEP-2013"],[123,"CDISCPILOT01","703","1258","XANOMELINE","54","mg","PATCH","QD","TRANSDERMAL","BASELINE","20-JUL-2012","01-AUG-2012"],[124,"CDISCPILOT01","703","1258","XANOMELINE","81","mg","PATCH","QD","TRANSDERMAL","WEEK 2","02-AUG-2012","31-DEC-2012"],[125,"CDISCPILOT01","703","1258","XANOMELINE","54","mg","PATCH","QD","TRANSDERMAL","WEEK 24","01-JAN-2013","11-JAN-2013"],[126,"CDISCPILOT01","703","1279","XANOMELINE","54","mg","PATCH","QD","TRANSDERMAL","BASELINE","13-MAY-2013","03-JUN-2013"],[127,"CDISCPILOT01","703","1295","XANOMELINE","54","mg","PATCH","QD","TRANSDERMAL","BASELINE","21-NOV-2013","05-DEC-2013"],[128,"CDISCPILOT01","703","1295","XANOMELINE","81","mg","PATCH","QD","TRANSDERMAL","WEEK 2","06-DEC-2013","19-APR-2014"],[129,"CDISCPILOT01","703","1299","PLACEBO","0","mg","PATCH","QD","TRANSDERMAL","BASELINE","12-SEP-2012","28-SEP-2012"],[130,"CDISCPILOT01","703","1299","PLACEBO","0","mg","PATCH","QD","TRANSDERMAL","WEEK 2","29-SEP-2012","01-MAR-2013"],[131,"CDISCPILOT01","703","1299","PLACEBO","0","mg","PATCH","QD","TRANSDERMAL","WEEK 24","02-MAR-2013","13-MAR-2013"],[132,"CDISCPILOT01","703","1335","XANOMELINE","54","mg","PATCH","QD","TRANSDERMAL","BASELINE","17-MAR-2014","31-MAR-2014"],[133,"CDISCPILOT01","703","1335","XANOMELINE","81","mg","PATCH","QD","TRANSDERMAL","WEEK 2","01-APR-2014","07-MAY-2014"],[134,"CDISCPILOT01","703","1379","XANOMELINE","54","mg","PATCH","QD","TRANSDERMAL","BASELINE","22-SEP-2013","07-OCT-2013"],[135,"CDISCPILOT01","703","1379","XANOMELINE","54","mg","PATCH","QD","TRANSDERMAL","WEEK 2","08-OCT-2013","08-MAR-2014"],[136,"CDISCPILOT01","703","1379","XANOMELINE","54","mg","PATCH","QD","TRANSDERMAL","WEEK 24","09-MAR-2014","21-MAR-2014"],[137,"CDISCPILOT01","703","1403","XANOMELINE","54","mg","PATCH","QD","TRANSDERMAL","BASELINE","12-DEC-2012","13-DEC-2012"],[138,"CDISCPILOT01","703","1439","XANOMELINE","54","mg","PATCH","QD","TRANSDERMAL","BASELINE","12-MAR-2014","26-MAR-2014"],[139,"CDISCPILOT01","703","1439","XANOMELINE","81","mg","PATCH","QD","TRANSDERMAL","WEEK 2","27-MAR-2014","28-AUG-2014"],[140,"CDISCPILOT01","703","1439","XANOMELINE","54","mg","PATCH","QD","TRANSDERMAL","WEEK 24","29-AUG-2014","11-SEP-2014"],[141,"CDISCPILOT01","704","1008","XANOMELINE","54","mg","PATCH","QD","TRANSDERMAL","BASELINE","13-JAN-2013","28-JAN-2013"],[142,"CDISCPILOT01","704","1008","XANOMELINE","81","mg","PATCH","QD","TRANSDERMAL","WEEK 2","29-JAN-2013","21-FEB-2013"],[143,"CDISCPILOT01","704","1009","XANOMELINE","54","mg","PATCH","QD","TRANSDERMAL","BASELINE","27-AUG-2013","14-SEP-2013"],[144,"CDISCPILOT01","704","1009","XANOMELINE","54","mg","PATCH","QD","TRANSDERMAL","WEEK 2","15-SEP-2013","25-SEP-2013"],[145,"CDISCPILOT01","704","1010","PLACEBO","0","mg","PATCH","QD","TRANSDERMAL","BASELINE","21-FEB-2014","08-MAR-2014"],[146,"CDISCPILOT01","704","1010","PLACEBO","0","mg","PATCH","QD","TRANSDERMAL","WEEK 2","09-MAR-2014","08-JUL-2014"],[147,"CDISCPILOT01","704","1017","XANOMELINE","54","mg","PATCH","QD","TRANSDERMAL","BASELINE","06-OCT-2013","19-OCT-2013"],[148,"CDISCPILOT01","704","1017","XANOMELINE","81","mg","PATCH","QD","TRANSDERMAL","WEEK 2","20-OCT-2013","18-NOV-2013"],[149,"CDISCPILOT01","704","1025","XANOMELINE","54","mg","PATCH","QD","TRANSDERMAL","BASELINE","27-SEP-2013","11-OCT-2013"],[150,"CDISCPILOT01","704","1025","XANOMELINE","54","mg","PATCH","QD","TRANSDERMAL","WEEK 2","12-OCT-2013","24-OCT-2013"],[151,"CDISCPILOT01","704","1065","XANOMELINE","54","mg","PATCH","QD","TRANSDERMAL","BASELINE","24-OCT-2013","07-NOV-2013"],[152,"CDISCPILOT01","704","1065","XANOMELINE","81","mg","PATCH","QD","TRANSDERMAL","WEEK 2","08-NOV-2013","22-DEC-2013"],[153,"CDISCPILOT01","704","1074","XANOMELINE","54","mg","PATCH","QD","TRANSDERMAL","BASELINE","22-JAN-2014","09-FEB-2014"],[154,"CDISCPILOT01","704","1074","XANOMELINE","81","mg","PATCH","QD","TRANSDERMAL","WEEK 2","10-FEB-2014","20-MAR-2014"],[155,"CDISCPILOT01","704","1093","XANOMELINE","54","mg","PATCH","QD","TRANSDERMAL","BASELINE","15-MAR-2013","30-MAR-2013"],[156,"CDISCPILOT01","704","1093","XANOMELINE","81","mg","PATCH","QD","TRANSDERMAL","WEEK 2","31-MAR-2013","17-JUN-2013"],[157,"CDISCPILOT01","704","1114","XANOMELINE","54","mg","PATCH","QD","TRANSDERMAL","BASELINE","23-JAN-2013","03-FEB-2013"],[158,"CDISCPILOT01","704","1114","XANOMELINE","54","mg","PATCH","QD","TRANSDERMAL","WEEK 2","04-FEB-2013","07-JUL-2013"],[159,"CDISCPILOT01","704","1120","XANOMELINE","54","mg","PATCH","QD","TRANSDERMAL","BASELINE","02-DEC-2013","15-DEC-2013"],[160,"CDISCPILOT01","704","1120","XANOMELINE","54","mg","PATCH","QD","TRANSDERMAL","WEEK 2","16-DEC-2013","01-FEB-2014"],[161,"CDISCPILOT01","704","1127","PLACEBO","0","mg","PATCH","QD","TRANSDERMAL","BASELINE","02-OCT-2013","16-OCT-2013"],[162,"CDISCPILOT01","704","1127","PLACEBO","0","mg","PATCH","QD","TRANSDERMAL","WEEK 2","17-OCT-2013","17-MAR-2014"],[163,"CDISCPILOT01","704","1127","PLACEBO","0","mg","PATCH","QD","TRANSDERMAL","WEEK 24","18-MAR-2014","31-MAR-2014"],[164,"CDISCPILOT01","704","1135","XANOMELINE","54","mg","PATCH","QD","TRANSDERMAL","BASELINE","31-OCT-2013","14-NOV-2013"],[165,"CDISCPILOT01","704","1135","XANOMELINE","54","mg","PATCH","QD","TRANSDERMAL","WEEK 2","15-NOV-2013","01-MAY-2014"],[166,"CDISCPILOT01","704","1135","XANOMELINE","54","mg","PATCH","QD","TRANSDERMAL","WEEK 24","02-MAY-2014","16-MAY-2014"],[167,"CDISCPILOT01","704","1164","PLACEBO","0","mg","PATCH","QD","TRANSDERMAL","BASELINE","19-SEP-2012","04-OCT-2012"],[168,"CDISCPILOT01","704","1164","PLACEBO","0","mg","PATCH","QD","TRANSDERMAL","WEEK 2","05-OCT-2012","17-MAR-2013"],[169,"CDISCPILOT01","704","1164","PLACEBO","0","mg","PATCH","QD","TRANSDERMAL","WEEK 24","18-MAR-2013","04-APR-2013"],[170,"CDISCPILOT01","704","1218","XANOMELINE","54","mg","PATCH","QD","TRANSDERMAL","BASELINE","19-NOV-2012","03-DEC-2012"],[171,"CDISCPILOT01","704","1218","XANOMELINE","54","mg","PATCH","QD","TRANSDERMAL","WEEK 2","04-DEC-2012","13-MAY-2013"],[172,"CDISCPILOT01","704","1218","XANOMELINE","54","mg","PATCH","QD","TRANSDERMAL","WEEK 24","14-MAY-2013","27-MAY-2013"],[173,"CDISCPILOT01","704","1233","PLACEBO","0","mg","PATCH","QD","TRANSDERMAL","BASELINE","21-MAR-2013","04-APR-2013"],[174,"CDISCPILOT01","704","1233","PLACEBO","0","mg","PATCH","QD","TRANSDERMAL","WEEK 2","05-APR-2013",""],[175,"CDISCPILOT01","704","1241","XANOMELINE","54","mg","PATCH","QD","TRANSDERMAL","BASELINE","25-AUG-2013","05-SEP-2013"],[176,"CDISCPILOT01","704","1241","XANOMELINE","81","mg","PATCH","QD","TRANSDERMAL","WEEK 2","06-SEP-2013","09-OCT-2013"],[177,"CDISCPILOT01","704","1260","PLACEBO","0","mg","PATCH","QD","TRANSDERMAL","BASELINE","30-AUG-2012","13-SEP-2012"],[178,"CDISCPILOT01","704","1260","PLACEBO","0","mg","PATCH","QD","TRANSDERMAL","WEEK 2","14-SEP-2012","04-NOV-2012"],[179,"CDISCPILOT01","704","1266","XANOMELINE","54","mg","PATCH","QD","TRANSDERMAL","BASELINE","13-OCT-2013","27-OCT-2013"],[180,"CDISCPILOT01","704","1266","XANOMELINE","81","mg","PATCH","QD","TRANSDERMAL","WEEK 2","28-OCT-2013","06-DEC-2013"],[181,"CDISCPILOT01","704","1323","XANOMELINE","54","mg","PATCH","QD","TRANSDERMAL","BASELINE","08-JUL-2013","23-JUL-2013"],[182,"CDISCPILOT01","704","1323","XANOMELINE","54","mg","PATCH","QD","TRANSDERMAL","WEEK 2","24-JUL-2013","05-AUG-2013"],[183,"CDISCPILOT01","704","1325","XANOMELINE","54","mg","PATCH","QD","TRANSDERMAL","BASELINE","23-APR-2014","07-MAY-2014"],[184,"CDISCPILOT01","704","1325","XANOMELINE","54","mg","PATCH","QD","TRANSDERMAL","WEEK 2","08-MAY-2014","04-JUL-2014"],[185,"CDISCPILOT01","704","1332","XANOMELINE","54","mg","PATCH","QD","TRANSDERMAL","BASELINE","09-DEC-2013","23-DEC-2013"],[186,"CDISCPILOT01","704","1332","XANOMELINE","81","mg","PATCH","QD","TRANSDERMAL","WEEK 2","24-DEC-2013","14-FEB-2014"],[187,"CDISCPILOT01","704","1351","PLACEBO","0","mg","PATCH","QD","TRANSDERMAL","BASELINE","12-OCT-2013","26-OCT-2013"],[188,"CDISCPILOT01","704","1351","PLACEBO","0","mg","PATCH","QD","TRANSDERMAL","WEEK 2","27-OCT-2013","04-APR-2014"],[189,"CDISCPILOT01","704","1351","PLACEBO","0","mg","PATCH","QD","TRANSDERMAL","WEEK 24","05-APR-2014","18-APR-2014"],[190,"CDISCPILOT01","704","1388","PLACEBO","0","mg","PATCH","QD","TRANSDERMAL","BASELINE","07-DEC-2012","21-DEC-2012"],[191,"CDISCPILOT01","704","1388","PLACEBO","0","mg","PATCH","QD","TRANSDERMAL","WEEK 2","22-DEC-2012","23-MAY-2013"],[192,"CDISCPILOT01","704","1388","PLACEBO","0","mg","PATCH","QD","TRANSDERMAL","WEEK 24","24-MAY-2013","11-JUN-2013"],[193,"CDISCPILOT01","704","1435","PLACEBO","0","mg","PATCH","QD","TRANSDERMAL","BASELINE","17-NOV-2012","01-DEC-2012"],[194,"CDISCPILOT01","704","1435","PLACEBO","0","mg","PATCH","QD","TRANSDERMAL","WEEK 2","02-DEC-2012","09-JAN-2013"],[195,"CDISCPILOT01","704","1445","PLACEBO","0","mg","PATCH","QD","TRANSDERMAL","BASELINE","11-MAY-2014","25-MAY-2014"],[196,"CDISCPILOT01","704","1445","PLACEBO","0","mg","PATCH","QD","TRANSDERMAL","WEEK 2","26-MAY-2014","01-NOV-2014"],[197,"CDISCPILOT01","705","1018","PLACEBO","0","mg","PATCH","QD","TRANSDERMAL","BASELINE","05-JUL-2013",""],[198,"CDISCPILOT01","705","1031","XANOMELINE","54","mg","PATCH","QD","TRANSDERMAL","BASELINE","27-NOV-2013","18-DEC-2013"],[199,"CDISCPILOT01","705","1031","XANOMELINE","54","mg","PATCH","QD","TRANSDERMAL","WEEK 2","19-DEC-2013",""],[200,"CDISCPILOT01","705","1059","PLACEBO","0","mg","PATCH","QD","TRANSDERMAL","BASELINE","05-AUG-2013","19-AUG-2013"],[201,"CDISCPILOT01","705","1059","PLACEBO","0","mg","PATCH","QD","TRANSDERMAL","WEEK 2","20-AUG-2013","05-DEC-2013"],[202,"CDISCPILOT01","705","1186","PLACEBO","0","mg","PATCH","QD","TRANSDERMAL","BASELINE","08-JAN-2014","23-JAN-2014"],[203,"CDISCPILOT01","705","1186","PLACEBO","0","mg","PATCH","QD","TRANSDERMAL","WEEK 2","24-JAN-2014","26-JAN-2014"],[204,"CDISCPILOT01","705","1199","XANOMELINE","54","mg","PATCH","QD","TRANSDERMAL","BASELINE","16-SEP-2013","28-SEP-2013"],[205,"CDISCPILOT01","705","1280","XANOMELINE","54","mg","PATCH","QD","TRANSDERMAL","BASELINE","17-JAN-2014","31-JAN-2014"],[206,"CDISCPILOT01","705","1280","XANOMELINE","81","mg","PATCH","QD","TRANSDERMAL","WEEK 2","01-FEB-2014","11-JUL-2014"],[207,"CDISCPILOT01","705","1280","XANOMELINE","54","mg","PATCH","QD","TRANSDERMAL","WEEK 24","12-JUL-2014","25-JUL-2014"],[208,"CDISCPILOT01","705","1281","XANOMELINE","54","mg","PATCH","QD","TRANSDERMAL","BASELINE","28-NOV-2013","15-DEC-2013"],[209,"CDISCPILOT01","705","1281","XANOMELINE","81","mg","PATCH","QD","TRANSDERMAL","WEEK 2","16-DEC-2013","27-FEB-2014"],[210,"CDISCPILOT01","705","1282","PLACEBO","0","mg","PATCH","QD","TRANSDERMAL","BASELINE","26-DEC-2012","09-JAN-2013"],[211,"CDISCPILOT01","705","1282","PLACEBO","0","mg","PATCH","QD","TRANSDERMAL","WEEK 2","10-JAN-2013","11-JUN-2013"],[212,"CDISCPILOT01","705","1282","PLACEBO","0","mg","PATCH","QD","TRANSDERMAL","WEEK 24","12-JUN-2013","24-JUN-2013"],[213,"CDISCPILOT01","705","1292","XANOMELINE","54","mg","PATCH","QD","TRANSDERMAL","BASELINE","14-OCT-2013","29-OCT-2013"],[214,"CDISCPILOT01","705","1292","XANOMELINE","54","mg","PATCH","QD","TRANSDERMAL","WEEK 2","30-OCT-2013","28-APR-2014"],[215,"CDISCPILOT01","705","1292","XANOMELINE","54","mg","PATCH","QD","TRANSDERMAL","WEEK 24","29-APR-2014","13-MAY-2014"],[216,"CDISCPILOT01","705","1303","XANOMELINE","54","mg","PATCH","QD","TRANSDERMAL","BASELINE","16-DEC-2013","30-DEC-2013"],[217,"CDISCPILOT01","705","1303","XANOMELINE","81","mg","PATCH","QD","TRANSDERMAL","WEEK 2","31-DEC-2013",""],[218,"CDISCPILOT01","705","1310","XANOMELINE","54","mg","PATCH","QD","TRANSDERMAL","BASELINE","02-NOV-2013","22-NOV-2013"],[219,"CDISCPILOT01","705","1310","XANOMELINE","81","mg","PATCH","QD","TRANSDERMAL","WEEK 2","23-NOV-2013","23-JAN-2014"],[220,"CDISCPILOT01","705","1349","PLACEBO","0","mg","PATCH","QD","TRANSDERMAL","BASELINE","10-MAR-2013","24-MAR-2013"],[221,"CDISCPILOT01","705","1349","PLACEBO","0","mg","PATCH","QD","TRANSDERMAL","WEEK 2","25-MAR-2013","25-AUG-2013"],[222,"CDISCPILOT01","705","1349","PLACEBO","0","mg","PATCH","QD","TRANSDERMAL","WEEK 24","26-AUG-2013","08-SEP-2013"],[223,"CDISCPILOT01","705","1377","XANOMELINE","54","mg","PATCH","QD","TRANSDERMAL","BASELINE","04-JAN-2014","25-JAN-2014"],[224,"CDISCPILOT01","705","1377","XANOMELINE","81","mg","PATCH","QD","TRANSDERMAL","WEEK 2","26-JAN-2014",""],[225,"CDISCPILOT01","705","1382","XANOMELINE","54","mg","PATCH","QD","TRANSDERMAL","BASELINE","13-MAY-2013",""],[226,"CDISCPILOT01","705","1393","XANOMELINE","54","mg","PATCH","QD","TRANSDERMAL","BASELINE","07-SEP-2012","27-SEP-2012"],[227,"CDISCPILOT01","705","1393","XANOMELINE","54","mg","PATCH","QD","TRANSDERMAL","WEEK 2","28-SEP-2012","01-FEB-2013"],[228,"CDISCPILOT01","705","1431","XANOMELINE","54","mg","PATCH","QD","TRANSDERMAL","BASELINE","23-JUN-2013","07-JUL-2013"],[229,"CDISCPILOT01","705","1431","XANOMELINE","54","mg","PATCH","QD","TRANSDERMAL","WEEK 2","08-JUL-2013","05-DEC-2013"],[230,"CDISCPILOT01","705","1431","XANOMELINE","54","mg","PATCH","QD","TRANSDERMAL","WEEK 24","06-DEC-2013","19-DEC-2013"],[231,"CDISCPILOT01","706","1041","PLACEBO","0","mg","PATCH","QD","TRANSDERMAL","BASELINE","31-DEC-2013","14-JAN-2014"],[232,"CDISCPILOT01","706","1041","PLACEBO","0","mg","PATCH","QD","TRANSDERMAL","WEEK 2","15-JAN-2014","15-JUL-2014"],[233,"CDISCPILOT01","706","1041","PLACEBO","0","mg","PATCH","QD","TRANSDERMAL","WEEK 24","16-JUL-2014","28-JUL-2014"],[234,"CDISCPILOT01","706","1049","XANOMELINE","54","mg","PATCH","QD","TRANSDERMAL","BASELINE","14-MAY-2013","28-MAY-2013"],[235,"CDISCPILOT01","706","1049","XANOMELINE","81","mg","PATCH","QD","TRANSDERMAL","WEEK 2","29-MAY-2013","18-JUN-2013"],[236,"CDISCPILOT01","706","1384","XANOMELINE","54","mg","PATCH","QD","TRANSDERMAL","BASELINE","15-SEP-2012","24-SEP-2012"],[237,"CDISCPILOT01","707","1037","XANOMELINE","54","mg","PATCH","QD","TRANSDERMAL","BASELINE","20-DEC-2013","24-DEC-2013"],[238,"CDISCPILOT01","707","1206","PLACEBO","0","mg","PATCH","QD","TRANSDERMAL","BASELINE","28-OCT-2013","12-NOV-2013"],[239,"CDISCPILOT01","707","1206","PLACEBO","0","mg","PATCH","QD","TRANSDERMAL","WEEK 2","13-NOV-2013","13-APR-2014"],[240,"CDISCPILOT01","707","1206","PLACEBO","0","mg","PATCH","QD","TRANSDERMAL","WEEK 24","14-APR-2014","26-APR-2014"],[241,"CDISCPILOT01","708","1019","XANOMELINE","54","mg","PATCH","QD","TRANSDERMAL","BASELINE","20-DEC-2013","01-JAN-2014"],[242,"CDISCPILOT01","708","1032","XANOMELINE","54","mg","PATCH","QD","TRANSDERMAL","BASELINE","09-FEB-2013","23-FEB-2013"],[243,"CDISCPILOT01","708","1032","XANOMELINE","54","mg","PATCH","QD","TRANSDERMAL","WEEK 2","24-FEB-2013","01-MAR-2013"],[244,"CDISCPILOT01","708","1084","XANOMELINE","54","mg","PATCH","QD","TRANSDERMAL","BASELINE","09-MAY-2013","23-MAY-2013"],[245,"CDISCPILOT01","708","1084","XANOMELINE","54","mg","PATCH","QD","TRANSDERMAL","WEEK 2","24-MAY-2013","28-OCT-2013"],[246,"CDISCPILOT01","708","1084","XANOMELINE","54","mg","PATCH","QD","TRANSDERMAL","WEEK 24","29-OCT-2013","11-NOV-2013"],[247,"CDISCPILOT01","708","1087","PLACEBO","0","mg","PATCH","QD","TRANSDERMAL","BASELINE","22-OCT-2012","05-NOV-2012"],[248,"CDISCPILOT01","708","1087","PLACEBO","0","mg","PATCH","QD","TRANSDERMAL","WEEK 2","06-NOV-2012","10-APR-2013"],[249,"CDISCPILOT01","708","1087","PLACEBO","0","mg","PATCH","QD","TRANSDERMAL","WEEK 24","11-APR-2013","28-APR-2013"],[250,"CDISCPILOT01","708","1158","PLACEBO","0","mg","PATCH","QD","TRANSDERMAL","BASELINE","08-FEB-2014","26-FEB-2014"],[251,"CDISCPILOT01","708","1158","PLACEBO","0","mg","PATCH","QD","TRANSDERMAL","WEEK 2","27-FEB-2014","21-MAR-2014"],[252,"CDISCPILOT01","708","1171","PLACEBO","0","mg","PATCH","QD","TRANSDERMAL","BASELINE","06-DEC-2012","18-DEC-2012"],[253,"CDISCPILOT01","708","1171","PLACEBO","0","mg","PATCH","QD","TRANSDERMAL","WEEK 2","19-DEC-2012","20-MAY-2013"],[254,"CDISCPILOT01","708","1171","PLACEBO","0","mg","PATCH","QD","TRANSDERMAL","WEEK 24","21-MAY-2013","04-JUN-2013"],[255,"CDISCPILOT01","708","1178","XANOMELINE","54","mg","PATCH","QD","TRANSDERMAL","BASELINE","29-DEC-2013","18-JAN-2014"],[256,"CDISCPILOT01","708","1178","XANOMELINE","81","mg","PATCH","QD","TRANSDERMAL","WEEK 2","19-JAN-2014","06-APR-2014"],[257,"CDISCPILOT01","708","1213","XANOMELINE","54","mg","PATCH","QD","TRANSDERMAL","BASELINE","09-FEB-2013","22-FEB-2013"],[258,"CDISCPILOT01","708","1216","XANOMELINE","54","mg","PATCH","QD","TRANSDERMAL","BASELINE","24-OCT-2012","08-NOV-2012"],[259,"CDISCPILOT01","708","1216","XANOMELINE","81","mg","PATCH","QD","TRANSDERMAL","WEEK 2","09-NOV-2012","29-NOV-2012"],[260,"CDISCPILOT01","708","1236","XANOMELINE","54","mg","PATCH","QD","TRANSDERMAL","BASELINE","21-SEP-2013","21-SEP-2013"],[261,"CDISCPILOT01","708","1253","PLACEBO","0","mg","PATCH","QD","TRANSDERMAL","BASELINE","07-MAY-2013","21-MAY-2013"],[262,"CDISCPILOT01","708","1253","PLACEBO","0","mg","PATCH","QD","TRANSDERMAL","WEEK 2","22-MAY-2013","27-OCT-2013"],[263,"CDISCPILOT01","708","1253","PLACEBO","0","mg","PATCH","QD","TRANSDERMAL","WEEK 24","28-OCT-2013","05-NOV-2013"],[264,"CDISCPILOT01","708","1272","XANOMELINE","54","mg","PATCH","QD","TRANSDERMAL","BASELINE","06-FEB-2013","21-FEB-2013"],[265,"CDISCPILOT01","708","1272","XANOMELINE","54","mg","PATCH","QD","TRANSDERMAL","WEEK 2","22-FEB-2013","22-MAR-2013"],[266,"CDISCPILOT01","708","1286","PLACEBO","0","mg","PATCH","QD","TRANSDERMAL","BASELINE","10-SEP-2013","23-SEP-2013"],[267,"CDISCPILOT01","708","1286","PLACEBO","0","mg","PATCH","QD","TRANSDERMAL","WEEK 2","24-SEP-2013","23-FEB-2014"],[268,"CDISCPILOT01","708","1286","PLACEBO","0","mg","PATCH","QD","TRANSDERMAL","WEEK 24","24-FEB-2014","08-MAR-2014"],[269,"CDISCPILOT01","708","1296","PLACEBO","0","mg","PATCH","QD","TRANSDERMAL","BASELINE","14-JUN-2013","27-JUN-2013"],[270,"CDISCPILOT01","708","1296","PLACEBO","0","mg","PATCH","QD","TRANSDERMAL","WEEK 2","28-JUN-2013","27-NOV-2013"],[271,"CDISCPILOT01","708","1296","PLACEBO","0","mg","PATCH","QD","TRANSDERMAL","WEEK 24","28-NOV-2013","12-DEC-2013"],[272,"CDISCPILOT01","708","1297","XANOMELINE","54","mg","PATCH","QD","TRANSDERMAL","BASELINE","25-JAN-2013","08-FEB-2013"],[273,"CDISCPILOT01","708","1297","XANOMELINE","54","mg","PATCH","QD","TRANSDERMAL","WEEK 2","09-FEB-2013","03-MAY-2013"],[274,"CDISCPILOT01","708","1316","PLACEBO","0","mg","PATCH","QD","TRANSDERMAL","BASELINE","23-AUG-2013","05-SEP-2013"],[275,"CDISCPILOT01","708","1316","PLACEBO","0","mg","PATCH","QD","TRANSDERMAL","WEEK 2","06-SEP-2013","15-FEB-2014"],[276,"CDISCPILOT01","708","1316","PLACEBO","0","mg","PATCH","QD","TRANSDERMAL","WEEK 24","16-FEB-2014","01-MAR-2014"],[277,"CDISCPILOT01","708","1336","XANOMELINE","54","mg","PATCH","QD","TRANSDERMAL","BASELINE","07-DEC-2012","21-DEC-2012"],[278,"CDISCPILOT01","708","1336","XANOMELINE","81","mg","PATCH","QD","TRANSDERMAL","WEEK 2","22-DEC-2012","22-MAY-2013"],[279,"CDISCPILOT01","708","1336","XANOMELINE","54","mg","PATCH","QD","TRANSDERMAL","WEEK 24","23-MAY-2013","05-JUN-2013"],[280,"CDISCPILOT01","708","1342","PLACEBO","0","mg","PATCH","QD","TRANSDERMAL","BASELINE","29-DEC-2012","12-JAN-2013"],[281,"CDISCPILOT01","708","1342","PLACEBO","0","mg","PATCH","QD","TRANSDERMAL","WEEK 2","13-JAN-2013","15-JUN-2013"],[282,"CDISCPILOT01","708","1342","PLACEBO","0","mg","PATCH","QD","TRANSDERMAL","WEEK 24","16-JUN-2013","28-JUN-2013"],[283,"CDISCPILOT01","708","1347","XANOMELINE","54","mg","PATCH","QD","TRANSDERMAL","BASELINE","20-APR-2013","04-MAY-2013"],[284,"CDISCPILOT01","708","1347","XANOMELINE","81","mg","PATCH","QD","TRANSDERMAL","WEEK 2","05-MAY-2013","18-JUN-2013"],[285,"CDISCPILOT01","708","1348","XANOMELINE","54","mg","PATCH","QD","TRANSDERMAL","BASELINE","05-AUG-2013","19-AUG-2013"],[286,"CDISCPILOT01","708","1348","XANOMELINE","54","mg","PATCH","QD","TRANSDERMAL","WEEK 2","20-AUG-2013","03-FEB-2014"],[287,"CDISCPILOT01","708","1348","XANOMELINE","54","mg","PATCH","QD","TRANSDERMAL","WEEK 24","04-FEB-2014","13-FEB-2014"],[288,"CDISCPILOT01","708","1353","XANOMELINE","54","mg","PATCH","QD","TRANSDERMAL","BASELINE","04-JUL-2013","18-JUL-2013"],[289,"CDISCPILOT01","708","1353","XANOMELINE","54","mg","PATCH","QD","TRANSDERMAL","WEEK 2","19-JUL-2013","28-AUG-2013"],[290,"CDISCPILOT01","708","1372","XANOMELINE","54","mg","PATCH","QD","TRANSDERMAL","BASELINE","12-APR-2013","19-APR-2013"],[291,"CDISCPILOT01","708","1378","PLACEBO","0","mg","PATCH","QD","TRANSDERMAL","BASELINE","03-SEP-2013","21-SEP-2013"],[292,"CDISCPILOT01","708","1378","PLACEBO","0","mg","PATCH","QD","TRANSDERMAL","WEEK 2","22-SEP-2013","28-JAN-2014"],[293,"CDISCPILOT01","708","1406","XANOMELINE","54","mg","PATCH","QD","TRANSDERMAL","BASELINE","26-DEC-2013","09-JAN-2014"],[294,"CDISCPILOT01","708","1406","XANOMELINE","81","mg","PATCH","QD","TRANSDERMAL","WEEK 2","10-JAN-2014","16-JUN-2014"],[295,"CDISCPILOT01","708","1406","XANOMELINE","54","mg","PATCH","QD","TRANSDERMAL","WEEK 24","17-JUN-2014","02-JUL-2014"],[296,"CDISCPILOT01","708","1428","XANOMELINE","54","mg","PATCH","QD","TRANSDERMAL","BASELINE","09-NOV-2013","23-NOV-2013"],[297,"CDISCPILOT01","708","1428","XANOMELINE","54","mg","PATCH","QD","TRANSDERMAL","WEEK 2","24-NOV-2013","14-DEC-2013"],[298,"CDISCPILOT01","709","1001","PLACEBO","0","mg","PATCH","QD","TRANSDERMAL","BASELINE","08-OCT-2013","22-OCT-2013"],[299,"CDISCPILOT01","709","1001","PLACEBO","0","mg","PATCH","QD","TRANSDERMAL","WEEK 2","23-OCT-2013","17-MAR-2014"],[300,"CDISCPILOT01","709","1001","PLACEBO","0","mg","PATCH","QD","TRANSDERMAL","WEEK 24","18-MAR-2014","08-APR-2014"],[301,"CDISCPILOT01","709","1007","XANOMELINE","54","mg","PATCH","QD","TRANSDERMAL","BASELINE","31-JUL-2012","18-AUG-2012"],[302,"CDISCPILOT01","709","1007","XANOMELINE","54","mg","PATCH","QD","TRANSDERMAL","WEEK 2","19-AUG-2012","28-AUG-2012"],[303,"CDISCPILOT01","709","1020","XANOMELINE","54","mg","PATCH","QD","TRANSDERMAL","BASELINE","01-DEC-2012","15-DEC-2012"],[304,"CDISCPILOT01","709","1020","XANOMELINE","54","mg","PATCH","QD","TRANSDERMAL","WEEK 2","16-DEC-2012","18-MAY-2013"],[305,"CDISCPILOT01","709","1020","XANOMELINE","54","mg","PATCH","QD","TRANSDERMAL","WEEK 24","19-MAY-2013","01-JUN-2013"],[306,"CDISCPILOT01","709","1029","XANOMELINE","54","mg","PATCH","QD","TRANSDERMAL","BASELINE","25-DEC-2012","09-JAN-2013"],[307,"CDISCPILOT01","709","1029","XANOMELINE","81","mg","PATCH","QD","TRANSDERMAL","WEEK 2","10-JAN-2013","12-JUN-2013"],[308,"CDISCPILOT01","709","1029","XANOMELINE","54","mg","PATCH","QD","TRANSDERMAL","WEEK 24","13-JUN-2013","26-JUN-2013"],[309,"CDISCPILOT01","709","1081","XANOMELINE","54","mg","PATCH","QD","TRANSDERMAL","BASELINE","18-JAN-2014","01-FEB-2014"],[310,"CDISCPILOT01","709","1081","XANOMELINE","54","mg","PATCH","QD","TRANSDERMAL","WEEK 2","02-FEB-2014","27-APR-2014"],[311,"CDISCPILOT01","709","1088","PLACEBO","0","mg","PATCH","QD","TRANSDERMAL","BASELINE","12-APR-2014","26-APR-2014"],[312,"CDISCPILOT01","709","1088","PLACEBO","0","mg","PATCH","QD","TRANSDERMAL","WEEK 2","27-APR-2014","27-SEP-2014"],[313,"CDISCPILOT01","709","1088","PLACEBO","0","mg","PATCH","QD","TRANSDERMAL","WEEK 24","28-SEP-2014","09-OCT-2014"],[314,"CDISCPILOT01","709","1099","XANOMELINE","54","mg","PATCH","QD","TRANSDERMAL","BASELINE","25-OCT-2013","12-NOV-2013"],[315,"CDISCPILOT01","709","1099","XANOMELINE","81","mg","PATCH","QD","TRANSDERMAL","WEEK 2","13-NOV-2013","11-APR-2014"],[316,"CDISCPILOT01","709","1099","XANOMELINE","54","mg","PATCH","QD","TRANSDERMAL","WEEK 24","12-APR-2014","25-APR-2014"],[317,"CDISCPILOT01","709","1102","XANOMELINE","54","mg","PATCH","QD","TRANSDERMAL","BASELINE","15-JAN-2013","31-JAN-2013"],[318,"CDISCPILOT01","709","1102","XANOMELINE","54","mg","PATCH","QD","TRANSDERMAL","WEEK 2","01-FEB-2013","27-MAR-2013"],[319,"CDISCPILOT01","709","1168","XANOMELINE","54","mg","PATCH","QD","TRANSDERMAL","BASELINE","02-AUG-2013","17-AUG-2013"],[320,"CDISCPILOT01","709","1168","XANOMELINE","81","mg","PATCH","QD","TRANSDERMAL","WEEK 2","18-AUG-2013","26-SEP-2013"],[321,"CDISCPILOT01","709","1217","XANOMELINE","54","mg","PATCH","QD","TRANSDERMAL","BASELINE","04-MAR-2013","19-MAR-2013"],[322,"CDISCPILOT01","709","1217","XANOMELINE","54","mg","PATCH","QD","TRANSDERMAL","WEEK 2","20-MAR-2013","11-JUN-2013"],[323,"CDISCPILOT01","709","1238","XANOMELINE","54","mg","PATCH","QD","TRANSDERMAL","BASELINE","15-MAY-2013","29-MAY-2013"],[324,"CDISCPILOT01","709","1238","XANOMELINE","81","mg","PATCH","QD","TRANSDERMAL","WEEK 2","30-MAY-2013","06-AUG-2013"],[325,"CDISCPILOT01","709","1259","PLACEBO","0","mg","PATCH","QD","TRANSDERMAL","BASELINE","26-JAN-2013","10-FEB-2013"],[326,"CDISCPILOT01","709","1259","PLACEBO","0","mg","PATCH","QD","TRANSDERMAL","WEEK 2","11-FEB-2013","13-JUN-2013"],[327,"CDISCPILOT01","709","1285","XANOMELINE","54","mg","PATCH","QD","TRANSDERMAL","BASELINE","24-MAR-2013","08-APR-2013"],[328,"CDISCPILOT01","709","1285","XANOMELINE","54","mg","PATCH","QD","TRANSDERMAL","WEEK 2","09-APR-2013","23-MAY-2013"],[329,"CDISCPILOT01","709","1301","PLACEBO","0","mg","PATCH","QD","TRANSDERMAL","BASELINE","19-JUL-2013","02-AUG-2013"],[330,"CDISCPILOT01","709","1301","PLACEBO","0","mg","PATCH","QD","TRANSDERMAL","WEEK 2","03-AUG-2013","04-JAN-2014"],[331,"CDISCPILOT01","709","1301","PLACEBO","0","mg","PATCH","QD","TRANSDERMAL","WEEK 24","05-JAN-2014","17-JAN-2014"],[332,"CDISCPILOT01","709","1306","PLACEBO","0","mg","PATCH","QD","TRANSDERMAL","BASELINE","03-FEB-2014","19-FEB-2014"],[333,"CDISCPILOT01","709","1306","PLACEBO","0","mg","PATCH","QD","TRANSDERMAL","WEEK 2","20-FEB-2014","16-JUN-2014"],[334,"CDISCPILOT01","709","1309","XANOMELINE","54","mg","PATCH","QD","TRANSDERMAL","BASELINE","19-JUN-2013","01-JUL-2013"],[335,"CDISCPILOT01","709","1309","XANOMELINE","81","mg","PATCH","QD","TRANSDERMAL","WEEK 2","02-JUL-2013","05-DEC-2013"],[336,"CDISCPILOT01","709","1309","XANOMELINE","54","mg","PATCH","QD","TRANSDERMAL","WEEK 24","06-DEC-2013","19-DEC-2013"],[337,"CDISCPILOT01","709","1312","PLACEBO","0","mg","PATCH","QD","TRANSDERMAL","BASELINE","20-APR-2014","10-MAY-2014"],[338,"CDISCPILOT01","709","1312","PLACEBO","0","mg","PATCH","QD","TRANSDERMAL","WEEK 2","11-MAY-2014","05-OCT-2014"],[339,"CDISCPILOT01","709","1312","PLACEBO","0","mg","PATCH","QD","TRANSDERMAL","WEEK 24","06-OCT-2014","19-OCT-2014"],[340,"CDISCPILOT01","709","1326","XANOMELINE","54","mg","PATCH","QD","TRANSDERMAL","BASELINE","05-APR-2013","18-APR-2013"],[341,"CDISCPILOT01","709","1326","XANOMELINE","54","mg","PATCH","QD","TRANSDERMAL","WEEK 2","19-APR-2013","20-SEP-2013"],[342,"CDISCPILOT01","709","1326","XANOMELINE","54","mg","PATCH","QD","TRANSDERMAL","WEEK 24","21-SEP-2013","02-OCT-2013"],[343,"CDISCPILOT01","709","1329","XANOMELINE","54","mg","PATCH","QD","TRANSDERMAL","BASELINE","15-AUG-2013","25-AUG-2013"],[344,"CDISCPILOT01","709","1339","PLACEBO","0","mg","PATCH","QD","TRANSDERMAL","BASELINE","23-DEC-2012","05-JAN-2013"],[345,"CDISCPILOT01","709","1339","PLACEBO","0","mg","PATCH","QD","TRANSDERMAL","WEEK 2","06-JAN-2013","08-JUN-2013"],[346,"CDISCPILOT01","709","1339","PLACEBO","0","mg","PATCH","QD","TRANSDERMAL","WEEK 24","09-JUN-2013","24-JUN-2013"],[347,"CDISCPILOT01","709","1424","XANOMELINE","54","mg","PATCH","QD","TRANSDERMAL","BASELINE","03-MAR-2013","07-MAR-2013"],[348,"CDISCPILOT01","710","1002","XANOMELINE","54","mg","PATCH","QD","TRANSDERMAL","BASELINE","14-JAN-2014","18-JAN-2014"],[349,"CDISCPILOT01","710","1006","XANOMELINE","54","mg","PATCH","QD","TRANSDERMAL","BASELINE","10-FEB-2013","22-FEB-2013"],[350,"CDISCPILOT01","710","1006","XANOMELINE","81","mg","PATCH","QD","TRANSDERMAL","WEEK 2","23-FEB-2013","27-JUL-2013"],[351,"CDISCPILOT01","710","1006","XANOMELINE","54","mg","PATCH","QD","TRANSDERMAL","WEEK 24","28-JUL-2013","09-AUG-2013"],[352,"CDISCPILOT01","710","1021","XANOMELINE","54","mg","PATCH","QD","TRANSDERMAL","BASELINE","27-SEP-2013","11-OCT-2013"],[353,"CDISCPILOT01","710","1021","XANOMELINE","81","mg","PATCH","QD","TRANSDERMAL","WEEK 2","12-OCT-2013","29-OCT-2013"],[354,"CDISCPILOT01","710","1027","PLACEBO","0","mg","PATCH","QD","TRANSDERMAL","BASELINE","28-FEB-2014","14-MAR-2014"],[355,"CDISCPILOT01","710","1027","PLACEBO","0","mg","PATCH","QD","TRANSDERMAL","WEEK 2","15-MAR-2014","19-AUG-2014"],[356,"CDISCPILOT01","710","1027","PLACEBO","0","mg","PATCH","QD","TRANSDERMAL","WEEK 24","20-AUG-2014","29-AUG-2014"],[357,"CDISCPILOT01","710","1045","XANOMELINE","54","mg","PATCH","QD","TRANSDERMAL","BASELINE","03-JUN-2013","17-JUN-2013"],[358,"CDISCPILOT01","710","1045","XANOMELINE","54","mg","PATCH","QD","TRANSDERMAL","WEEK 2","18-JUN-2013","13-AUG-2013"],[359,"CDISCPILOT01","710","1053","XANOMELINE","54","mg","PATCH","QD","TRANSDERMAL","BASELINE","26-DEC-2012","09-JAN-2013"],[360,"CDISCPILOT01","710","1053","XANOMELINE","54","mg","PATCH","QD","TRANSDERMAL","WEEK 2","10-JAN-2013","10-FEB-2013"],[361,"CDISCPILOT01","710","1060","PLACEBO","0","mg","PATCH","QD","TRANSDERMAL","BASELINE","01-JAN-2013","15-JAN-2013"],[362,"CDISCPILOT01","710","1060","PLACEBO","0","mg","PATCH","QD","TRANSDERMAL","WEEK 2","16-JAN-2013","21-JUN-2013"],[363,"CDISCPILOT01","710","1060","PLACEBO","0","mg","PATCH","QD","TRANSDERMAL","WEEK 24","22-JUN-2013","05-JUL-2013"],[364,"CDISCPILOT01","710","1070","XANOMELINE","54","mg","PATCH","QD","TRANSDERMAL","BASELINE","08-SEP-2012","22-SEP-2012"],[365,"CDISCPILOT01","710","1070","XANOMELINE","81","mg","PATCH","QD","TRANSDERMAL","WEEK 2","23-SEP-2012","22-JAN-2013"],[366,"CDISCPILOT01","710","1077","PLACEBO","0","mg","PATCH","QD","TRANSDERMAL","BASELINE","17-NOV-2013","01-DEC-2013"],[367,"CDISCPILOT01","710","1077","PLACEBO","0","mg","PATCH","QD","TRANSDERMAL","WEEK 2","02-DEC-2013","03-MAY-2014"],[368,"CDISCPILOT01","710","1077","PLACEBO","0","mg","PATCH","QD","TRANSDERMAL","WEEK 24","04-MAY-2014","18-MAY-2014"],[369,"CDISCPILOT01","710","1078","PLACEBO","0","mg","PATCH","QD","TRANSDERMAL","BASELINE","17-SEP-2013","06-OCT-2013"],[370,"CDISCPILOT01","710","1078","PLACEBO","0","mg","PATCH","QD","TRANSDERMAL","WEEK 2","07-OCT-2013","08-MAR-2014"],[371,"CDISCPILOT01","710","1078","PLACEBO","0","mg","PATCH","QD","TRANSDERMAL","WEEK 24","09-MAR-2014","23-MAR-2014"],[372,"CDISCPILOT01","710","1083","PLACEBO","0","mg","PATCH","QD","TRANSDERMAL","BASELINE","22-JUL-2013","01-AUG-2013"],[373,"CDISCPILOT01","710","1137","XANOMELINE","54","mg","PATCH","QD","TRANSDERMAL","BASELINE","11-OCT-2013","25-OCT-2013"],[374,"CDISCPILOT01","710","1137","XANOMELINE","81","mg","PATCH","QD","TRANSDERMAL","WEEK 2","26-OCT-2013","13-NOV-2013"],[375,"CDISCPILOT01","710","1142","XANOMELINE","54","mg","PATCH","QD","TRANSDERMAL","BASELINE","02-OCT-2012","16-OCT-2012"],[376,"CDISCPILOT01","710","1142","XANOMELINE","81","mg","PATCH","QD","TRANSDERMAL","WEEK 2","17-OCT-2012","20-OCT-2012"],[377,"CDISCPILOT01","710","1154","XANOMELINE","54","mg","PATCH","QD","TRANSDERMAL","BASELINE","29-MAR-2014","12-APR-2014"],[378,"CDISCPILOT01","710","1154","XANOMELINE","54","mg","PATCH","QD","TRANSDERMAL","WEEK 2","13-APR-2014","27-APR-2014"],[379,"CDISCPILOT01","710","1166","XANOMELINE","54","mg","PATCH","QD","TRANSDERMAL","BASELINE","30-NOV-2012","14-DEC-2012"],[380,"CDISCPILOT01","710","1166","XANOMELINE","54","mg","PATCH","QD","TRANSDERMAL","WEEK 2","15-DEC-2012","19-MAR-2013"],[381,"CDISCPILOT01","710","1183","PLACEBO","0","mg","PATCH","QD","TRANSDERMAL","BASELINE","16-NOV-2013","30-NOV-2013"],[382,"CDISCPILOT01","710","1183","PLACEBO","0","mg","PATCH","QD","TRANSDERMAL","WEEK 2","01-DEC-2013","03-MAY-2014"],[383,"CDISCPILOT01","710","1183","PLACEBO","0","mg","PATCH","QD","TRANSDERMAL","WEEK 24","04-MAY-2014","17-MAY-2014"],[384,"CDISCPILOT01","710","1187","XANOMELINE","54","mg","PATCH","QD","TRANSDERMAL","BASELINE","10-NOV-2012","24-NOV-2012"],[385,"CDISCPILOT01","710","1187","XANOMELINE","81","mg","PATCH","QD","TRANSDERMAL","WEEK 2","25-NOV-2012","28-APR-2013"],[386,"CDISCPILOT01","710","1187","XANOMELINE","54","mg","PATCH","QD","TRANSDERMAL","WEEK 24","29-APR-2013","12-MAY-2013"],[387,"CDISCPILOT01","710","1235","XANOMELINE","54","mg","PATCH","QD","TRANSDERMAL","BASELINE","26-SEP-2012","10-OCT-2012"],[388,"CDISCPILOT01","710","1235","XANOMELINE","54","mg","PATCH","QD","TRANSDERMAL","WEEK 2","11-OCT-2012","13-MAR-2013"],[389,"CDISCPILOT01","710","1235","XANOMELINE","54","mg","PATCH","QD","TRANSDERMAL","WEEK 24","14-MAR-2013","27-MAR-2013"],[390,"CDISCPILOT01","710","1249","XANOMELINE","54","mg","PATCH","QD","TRANSDERMAL","BASELINE","28-DEC-2013","11-JAN-2014"],[391,"CDISCPILOT01","710","1249","XANOMELINE","81","mg","PATCH","QD","TRANSDERMAL","WEEK 2","12-JAN-2014","14-JUN-2014"],[392,"CDISCPILOT01","710","1249","XANOMELINE","54","mg","PATCH","QD","TRANSDERMAL","WEEK 24","15-JUN-2014","28-JUN-2014"],[393,"CDISCPILOT01","710","1264","PLACEBO","0","mg","PATCH","QD","TRANSDERMAL","BASELINE","13-JUN-2013","27-JUN-2013"],[394,"CDISCPILOT01","710","1264","PLACEBO","0","mg","PATCH","QD","TRANSDERMAL","WEEK 2","28-JUN-2013","11-OCT-2013"],[395,"CDISCPILOT01","710","1270","XANOMELINE","54","mg","PATCH","QD","TRANSDERMAL","BASELINE","12-FEB-2014","01-MAR-2014"],[396,"CDISCPILOT01","710","1271","PLACEBO","0","mg","PATCH","QD","TRANSDERMAL","BASELINE","27-SEP-2012","12-OCT-2012"],[397,"CDISCPILOT01","710","1271","PLACEBO","0","mg","PATCH","QD","TRANSDERMAL","WEEK 2","13-OCT-2012","21-NOV-2012"],[398,"CDISCPILOT01","710","1278","XANOMELINE","54","mg","PATCH","QD","TRANSDERMAL","BASELINE","24-DEC-2012","07-JAN-2013"],[399,"CDISCPILOT01","710","1278","XANOMELINE","81","mg","PATCH","QD","TRANSDERMAL","WEEK 2","08-JAN-2013","26-FEB-2013"],[400,"CDISCPILOT01","710","1300","XANOMELINE","54","mg","PATCH","QD","TRANSDERMAL","BASELINE","15-DEC-2012","30-DEC-2012"],[401,"CDISCPILOT01","710","1300","XANOMELINE","54","mg","PATCH","QD","TRANSDERMAL","WEEK 2","31-DEC-2012","15-FEB-2013"],[402,"CDISCPILOT01","710","1314","PLACEBO","0","mg","PATCH","QD","TRANSDERMAL","BASELINE","24-APR-2013","09-MAY-2013"],[403,"CDISCPILOT01","710","1314","PLACEBO","0","mg","PATCH","QD","TRANSDERMAL","WEEK 2","10-MAY-2013","23-MAY-2013"],[404,"CDISCPILOT01","710","1315","PLACEBO","0","mg","PATCH","QD","TRANSDERMAL","BASELINE","27-FEB-2013","13-MAR-2013"],[405,"CDISCPILOT01","710","1315","PLACEBO","0","mg","PATCH","QD","TRANSDERMAL","WEEK 2","14-MAR-2013","06-JUL-2013"],[406,"CDISCPILOT01","710","1354","XANOMELINE","54","mg","PATCH","QD","TRANSDERMAL","BASELINE","11-NOV-2012","25-NOV-2012"],[407,"CDISCPILOT01","710","1354","XANOMELINE","81","mg","PATCH","QD","TRANSDERMAL","WEEK 2","26-NOV-2012","21-APR-2013"],[408,"CDISCPILOT01","710","1354","XANOMELINE","54","mg","PATCH","QD","TRANSDERMAL","WEEK 24","22-APR-2013","01-MAY-2013"],[409,"CDISCPILOT01","710","1358","XANOMELINE","54","mg","PATCH","QD","TRANSDERMAL","BASELINE","17-SEP-2012","01-OCT-2012"],[410,"CDISCPILOT01","710","1358","XANOMELINE","54","mg","PATCH","QD","TRANSDERMAL","WEEK 2","02-OCT-2012","09-FEB-2013"],[411,"CDISCPILOT01","710","1368","PLACEBO","0","mg","PATCH","QD","TRANSDERMAL","BASELINE","23-OCT-2013","06-NOV-2013"],[412,"CDISCPILOT01","710","1368","PLACEBO","0","mg","PATCH","QD","TRANSDERMAL","WEEK 2","07-NOV-2013","09-APR-2014"],[413,"CDISCPILOT01","710","1368","PLACEBO","0","mg","PATCH","QD","TRANSDERMAL","WEEK 24","10-APR-2014","24-APR-2014"],[414,"CDISCPILOT01","710","1385","XANOMELINE","54","mg","PATCH","QD","TRANSDERMAL","BASELINE","29-OCT-2012","12-NOV-2012"],[415,"CDISCPILOT01","710","1385","XANOMELINE","54","mg","PATCH","QD","TRANSDERMAL","WEEK 2","13-NOV-2012","18-FEB-2013"],[416,"CDISCPILOT01","710","1408","XANOMELINE","54","mg","PATCH","QD","TRANSDERMAL","BASELINE","05-JAN-2013","24-JAN-2013"],[417,"CDISCPILOT01","710","1408","XANOMELINE","81","mg","PATCH","QD","TRANSDERMAL","WEEK 2","25-JAN-2013","28-JUN-2013"],[418,"CDISCPILOT01","710","1408","XANOMELINE","54","mg","PATCH","QD","TRANSDERMAL","WEEK 24","29-JUN-2013","12-JUL-2013"],[419,"CDISCPILOT01","711","1012","XANOMELINE","54","mg","PATCH","QD","TRANSDERMAL","BASELINE","03-APR-2013","17-APR-2013"],[420,"CDISCPILOT01","711","1012","XANOMELINE","81","mg","PATCH","QD","TRANSDERMAL","WEEK 2","18-APR-2013","29-APR-2013"],[421,"CDISCPILOT01","711","1036","PLACEBO","0","mg","PATCH","QD","TRANSDERMAL","BASELINE","29-JUL-2012","12-AUG-2012"],[422,"CDISCPILOT01","711","1036","PLACEBO","0","mg","PATCH","QD","TRANSDERMAL","WEEK 2","13-AUG-2012","13-JAN-2013"],[423,"CDISCPILOT01","711","1036","PLACEBO","0","mg","PATCH","QD","TRANSDERMAL","WEEK 24","14-JAN-2013","10-FEB-2013"],[424,"CDISCPILOT01","711","1143","XANOMELINE","54","mg","PATCH","QD","TRANSDERMAL","BASELINE","03-APR-2013","17-APR-2013"],[425,"CDISCPILOT01","711","1143","XANOMELINE","54","mg","PATCH","QD","TRANSDERMAL","WEEK 2","18-APR-2013","30-MAY-2013"],[426,"CDISCPILOT01","711","1433","XANOMELINE","54","mg","PATCH","QD","TRANSDERMAL","BASELINE","27-JAN-2013","05-FEB-2013"],[427,"CDISCPILOT01","713","1043","XANOMELINE","54","mg","PATCH","QD","TRANSDERMAL","BASELINE","15-SEP-2013","30-SEP-2013"],[428,"CDISCPILOT01","713","1043","XANOMELINE","54","mg","PATCH","QD","TRANSDERMAL","WEEK 2","01-OCT-2013","28-FEB-2014"],[429,"CDISCPILOT01","713","1043","XANOMELINE","54","mg","PATCH","QD","TRANSDERMAL","WEEK 24","01-MAR-2014","24-MAR-2014"],[430,"CDISCPILOT01","713","1073","XANOMELINE","54","mg","PATCH","QD","TRANSDERMAL","BASELINE","30-MAR-2014","14-APR-2014"],[431,"CDISCPILOT01","713","1073","XANOMELINE","54","mg","PATCH","QD","TRANSDERMAL","WEEK 2","15-APR-2014","21-SEP-2014"],[432,"CDISCPILOT01","713","1073","XANOMELINE","54","mg","PATCH","QD","TRANSDERMAL","WEEK 24","22-SEP-2014","05-OCT-2014"],[433,"CDISCPILOT01","713","1106","XANOMELINE","54","mg","PATCH","QD","TRANSDERMAL","BASELINE","31-OCT-2012","15-NOV-2012"],[434,"CDISCPILOT01","713","1106","XANOMELINE","81","mg","PATCH","QD","TRANSDERMAL","WEEK 2","16-NOV-2012","22-APR-2013"],[435,"CDISCPILOT01","713","1106","XANOMELINE","54","mg","PATCH","QD","TRANSDERMAL","WEEK 24","23-APR-2013","06-MAY-2013"],[436,"CDISCPILOT01","713","1141","XANOMELINE","54","mg","PATCH","QD","TRANSDERMAL","BASELINE","31-MAY-2013","14-JUN-2013"],[437,"CDISCPILOT01","713","1141","XANOMELINE","81","mg","PATCH","QD","TRANSDERMAL","WEEK 2","15-JUN-2013","01-JUL-2013"],[438,"CDISCPILOT01","713","1179","PLACEBO","0","mg","PATCH","QD","TRANSDERMAL","BASELINE","09-AUG-2013","24-AUG-2013"],[439,"CDISCPILOT01","713","1179","PLACEBO","0","mg","PATCH","QD","TRANSDERMAL","WEEK 2","25-AUG-2013","24-JAN-2014"],[440,"CDISCPILOT01","713","1179","PLACEBO","0","mg","PATCH","QD","TRANSDERMAL","WEEK 24","25-JAN-2014","05-FEB-2014"],[441,"CDISCPILOT01","713","1209","XANOMELINE","54","mg","PATCH","QD","TRANSDERMAL","BASELINE","27-MAY-2013","14-JUN-2013"],[442,"CDISCPILOT01","713","1209","XANOMELINE","81","mg","PATCH","QD","TRANSDERMAL","WEEK 2","15-JUN-2013","14-NOV-2013"],[443,"CDISCPILOT01","713","1209","XANOMELINE","54","mg","PATCH","QD","TRANSDERMAL","WEEK 24","15-NOV-2013","22-NOV-2013"],[444,"CDISCPILOT01","713","1256","PLACEBO","0","mg","PATCH","QD","TRANSDERMAL","BASELINE","19-SEP-2012","03-OCT-2012"],[445,"CDISCPILOT01","713","1256","PLACEBO","0","mg","PATCH","QD","TRANSDERMAL","WEEK 2","04-OCT-2012","09-MAR-2013"],[446,"CDISCPILOT01","713","1256","PLACEBO","0","mg","PATCH","QD","TRANSDERMAL","WEEK 24","10-MAR-2013","25-MAR-2013"],[447,"CDISCPILOT01","713","1269","PLACEBO","0","mg","PATCH","QD","TRANSDERMAL","BASELINE","27-JAN-2014","10-FEB-2014"],[448,"CDISCPILOT01","713","1269","PLACEBO","0","mg","PATCH","QD","TRANSDERMAL","WEEK 2","11-FEB-2014","13-JUL-2014"],[449,"CDISCPILOT01","713","1269","PLACEBO","0","mg","PATCH","QD","TRANSDERMAL","WEEK 24","14-JUL-2014","28-JUL-2014"],[450,"CDISCPILOT01","713","1448","XANOMELINE","54","mg","PATCH","QD","TRANSDERMAL","BASELINE","19-JAN-2014","01-FEB-2014"],[451,"CDISCPILOT01","713","1448","XANOMELINE","54","mg","PATCH","QD","TRANSDERMAL","WEEK 2","02-FEB-2014","16-MAY-2014"],[452,"CDISCPILOT01","714","1035","PLACEBO","0","mg","PATCH","QD","TRANSDERMAL","BASELINE","17-APR-2014","01-MAY-2014"],[453,"CDISCPILOT01","714","1035","PLACEBO","0","mg","PATCH","QD","TRANSDERMAL","WEEK 2","02-MAY-2014","02-OCT-2014"],[454,"CDISCPILOT01","714","1035","PLACEBO","0","mg","PATCH","QD","TRANSDERMAL","WEEK 24","03-OCT-2014","16-OCT-2014"],[455,"CDISCPILOT01","714","1068","XANOMELINE","54","mg","PATCH","QD","TRANSDERMAL","BASELINE","08-AUG-2013","22-AUG-2013"],[456,"CDISCPILOT01","714","1068","XANOMELINE","54","mg","PATCH","QD","TRANSDERMAL","WEEK 2","23-AUG-2013","08-OCT-2013"],[457,"CDISCPILOT01","714","1195","XANOMELINE","54","mg","PATCH","QD","TRANSDERMAL","BASELINE","26-APR-2013","09-MAY-2013"],[458,"CDISCPILOT01","714","1195","XANOMELINE","54","mg","PATCH","QD","TRANSDERMAL","WEEK 2","10-MAY-2013","10-OCT-2013"],[459,"CDISCPILOT01","714","1195","XANOMELINE","54","mg","PATCH","QD","TRANSDERMAL","WEEK 24","11-OCT-2013","23-OCT-2013"],[460,"CDISCPILOT01","714","1288","XANOMELINE","54","mg","PATCH","QD","TRANSDERMAL","BASELINE","04-DEC-2013","17-DEC-2013"],[461,"CDISCPILOT01","714","1288","XANOMELINE","81","mg","PATCH","QD","TRANSDERMAL","WEEK 2","18-DEC-2013","27-MAY-2014"],[462,"CDISCPILOT01","714","1288","XANOMELINE","54","mg","PATCH","QD","TRANSDERMAL","WEEK 24","28-MAY-2014","17-JUN-2014"],[463,"CDISCPILOT01","714","1375","PLACEBO","0","mg","PATCH","QD","TRANSDERMAL","BASELINE","26-FEB-2013","19-MAR-2013"],[464,"CDISCPILOT01","714","1375","PLACEBO","0","mg","PATCH","QD","TRANSDERMAL","WEEK 2","20-MAR-2013","23-AUG-2013"],[465,"CDISCPILOT01","714","1375","PLACEBO","0","mg","PATCH","QD","TRANSDERMAL","WEEK 24","24-AUG-2013","07-SEP-2013"],[466,"CDISCPILOT01","714","1425","XANOMELINE","54","mg","PATCH","QD","TRANSDERMAL","BASELINE","15-AUG-2013","19-AUG-2013"],[467,"CDISCPILOT01","715","1085","XANOMELINE","54","mg","PATCH","QD","TRANSDERMAL","BASELINE","16-FEB-2013","04-MAR-2013"],[468,"CDISCPILOT01","715","1085","XANOMELINE","54","mg","PATCH","QD","TRANSDERMAL","WEEK 2","05-MAR-2013","04-AUG-2013"],[469,"CDISCPILOT01","715","1085","XANOMELINE","54","mg","PATCH","QD","TRANSDERMAL","WEEK 24","05-AUG-2013","18-AUG-2013"],[470,"CDISCPILOT01","715","1107","XANOMELINE","54","mg","PATCH","QD","TRANSDERMAL","BASELINE","26-FEB-2013","12-MAR-2013"],[471,"CDISCPILOT01","715","1107","XANOMELINE","54","mg","PATCH","QD","TRANSDERMAL","WEEK 2","13-MAR-2013","07-MAY-2013"],[472,"CDISCPILOT01","715","1155","PLACEBO","0","mg","PATCH","QD","TRANSDERMAL","BASELINE","13-DEC-2013","27-DEC-2013"],[473,"CDISCPILOT01","715","1155","PLACEBO","0","mg","PATCH","QD","TRANSDERMAL","WEEK 2","28-DEC-2013","25-JAN-2014"],[474,"CDISCPILOT01","715","1207","PLACEBO","0","mg","PATCH","QD","TRANSDERMAL","BASELINE","18-NOV-2012","02-DEC-2012"],[475,"CDISCPILOT01","715","1207","PLACEBO","0","mg","PATCH","QD","TRANSDERMAL","WEEK 2","03-DEC-2012","05-MAY-2013"],[476,"CDISCPILOT01","715","1207","PLACEBO","0","mg","PATCH","QD","TRANSDERMAL","WEEK 24","06-MAY-2013","27-MAY-2013"],[477,"CDISCPILOT01","715","1319","XANOMELINE","54","mg","PATCH","QD","TRANSDERMAL","BASELINE","17-FEB-2013","03-MAR-2013"],[478,"CDISCPILOT01","715","1319","XANOMELINE","81","mg","PATCH","QD","TRANSDERMAL","WEEK 2","04-MAR-2013","05-MAR-2013"],[479,"CDISCPILOT01","715","1321","XANOMELINE","54","mg","PATCH","QD","TRANSDERMAL","BASELINE","11-FEB-2014","26-FEB-2014"],[480,"CDISCPILOT01","715","1321","XANOMELINE","81","mg","PATCH","QD","TRANSDERMAL","WEEK 2","27-FEB-2014","21-APR-2014"],[481,"CDISCPILOT01","715","1397","PLACEBO","0","mg","PATCH","QD","TRANSDERMAL","BASELINE","03-APR-2013","18-APR-2013"],[482,"CDISCPILOT01","715","1397","PLACEBO","0","mg","PATCH","QD","TRANSDERMAL","WEEK 2","19-APR-2013","18-SEP-2013"],[483,"CDISCPILOT01","715","1397","PLACEBO","0","mg","PATCH","QD","TRANSDERMAL","WEEK 24","19-SEP-2013","02-OCT-2013"],[484,"CDISCPILOT01","715","1405","XANOMELINE","54","mg","PATCH","QD","TRANSDERMAL","BASELINE","06-JUL-2013","07-JUL-2013"],[485,"CDISCPILOT01","716","1024","PLACEBO","0","mg","PATCH","QD","TRANSDERMAL","BASELINE","09-JUL-2012","23-JUL-2012"],[486,"CDISCPILOT01","716","1024","PLACEBO","0","mg","PATCH","QD","TRANSDERMAL","WEEK 2","24-JUL-2012","30-DEC-2012"],[487,"CDISCPILOT01","716","1024","PLACEBO","0","mg","PATCH","QD","TRANSDERMAL","WEEK 24","31-DEC-2012","20-JAN-2013"],[488,"CDISCPILOT01","716","1026","PLACEBO","0","mg","PATCH","QD","TRANSDERMAL","BASELINE","02-APR-2014","18-APR-2014"],[489,"CDISCPILOT01","716","1026","PLACEBO","0","mg","PATCH","QD","TRANSDERMAL","WEEK 2","19-APR-2014","27-SEP-2014"],[490,"CDISCPILOT01","716","1026","PLACEBO","0","mg","PATCH","QD","TRANSDERMAL","WEEK 24","28-SEP-2014","16-OCT-2014"],[491,"CDISCPILOT01","716","1030","XANOMELINE","54","mg","PATCH","QD","TRANSDERMAL","BASELINE","28-DEC-2013","02-JAN-2014"],[492,"CDISCPILOT01","716","1044","PLACEBO","0","mg","PATCH","QD","TRANSDERMAL","BASELINE","27-APR-2013","10-MAY-2013"],[493,"CDISCPILOT01","716","1044","PLACEBO","0","mg","PATCH","QD","TRANSDERMAL","WEEK 2","11-MAY-2013","16-OCT-2013"],[494,"CDISCPILOT01","716","1044","PLACEBO","0","mg","PATCH","QD","TRANSDERMAL","WEEK 24","17-OCT-2013","03-NOV-2013"],[495,"CDISCPILOT01","716","1063","XANOMELINE","54","mg","PATCH","QD","TRANSDERMAL","BASELINE","09-MAY-2013","23-MAY-2013"],[496,"CDISCPILOT01","716","1063","XANOMELINE","54","mg","PATCH","QD","TRANSDERMAL","WEEK 2","24-MAY-2013","25-AUG-2013"],[497,"CDISCPILOT01","716","1071","XANOMELINE","54","mg","PATCH","QD","TRANSDERMAL","BASELINE","08-JUN-2013","22-JUN-2013"],[498,"CDISCPILOT01","716","1071","XANOMELINE","81","mg","PATCH","QD","TRANSDERMAL","WEEK 2","23-JUN-2013","01-AUG-2013"],[499,"CDISCPILOT01","716","1094","XANOMELINE","54","mg","PATCH","QD","TRANSDERMAL","BASELINE","19-DEC-2012","06-JAN-2013"],[500,"CDISCPILOT01","716","1094","XANOMELINE","54","mg","PATCH","QD","TRANSDERMAL","WEEK 2","07-JAN-2013","24-JAN-2013"],[501,"CDISCPILOT01","716","1103","XANOMELINE","54","mg","PATCH","QD","TRANSDERMAL","BASELINE","20-MAR-2014","05-APR-2014"],[502,"CDISCPILOT01","716","1103","XANOMELINE","54","mg","PATCH","QD","TRANSDERMAL","WEEK 2","06-APR-2014","30-AUG-2014"],[503,"CDISCPILOT01","716","1103","XANOMELINE","54","mg","PATCH","QD","TRANSDERMAL","WEEK 24","31-AUG-2014","20-SEP-2014"],[504,"CDISCPILOT01","716","1108","PLACEBO","0","mg","PATCH","QD","TRANSDERMAL","BASELINE","12-FEB-2013","26-FEB-2013"],[505,"CDISCPILOT01","716","1108","PLACEBO","0","mg","PATCH","QD","TRANSDERMAL","WEEK 2","27-FEB-2013","02-AUG-2013"],[506,"CDISCPILOT01","716","1108","PLACEBO","0","mg","PATCH","QD","TRANSDERMAL","WEEK 24","03-AUG-2013","10-AUG-2013"],[507,"CDISCPILOT01","716","1151","XANOMELINE","54","mg","PATCH","QD","TRANSDERMAL","BASELINE","01-FEB-2013","15-FEB-2013"],[508,"CDISCPILOT01","716","1151","XANOMELINE","54","mg","PATCH","QD","TRANSDERMAL","WEEK 2","16-FEB-2013","11-MAY-2013"],[509,"CDISCPILOT01","716","1157","XANOMELINE","54","mg","PATCH","QD","TRANSDERMAL","BASELINE","02-OCT-2013","16-OCT-2013"],[510,"CDISCPILOT01","716","1157","XANOMELINE","54","mg","PATCH","QD","TRANSDERMAL","WEEK 2","17-OCT-2013","26-MAR-2014"],[511,"CDISCPILOT01","716","1157","XANOMELINE","54","mg","PATCH","QD","TRANSDERMAL","WEEK 24","27-MAR-2014","04-APR-2014"],[512,"CDISCPILOT01","716","1160","PLACEBO","0","mg","PATCH","QD","TRANSDERMAL","BASELINE","05-APR-2013","19-APR-2013"],[513,"CDISCPILOT01","716","1160","PLACEBO","0","mg","PATCH","QD","TRANSDERMAL","WEEK 2","20-APR-2013","27-SEP-2013"],[514,"CDISCPILOT01","716","1160","PLACEBO","0","mg","PATCH","QD","TRANSDERMAL","WEEK 24","28-SEP-2013","11-OCT-2013"],[515,"CDISCPILOT01","716","1167","XANOMELINE","54","mg","PATCH","QD","TRANSDERMAL","BASELINE","08-OCT-2012","29-OCT-2012"],[516,"CDISCPILOT01","716","1167","XANOMELINE","54","mg","PATCH","QD","TRANSDERMAL","WEEK 2","30-OCT-2012","24-MAR-2013"],[517,"CDISCPILOT01","716","1167","XANOMELINE","54","mg","PATCH","QD","TRANSDERMAL","WEEK 24","25-MAR-2013","12-APR-2013"],[518,"CDISCPILOT01","716","1177","PLACEBO","0","mg","PATCH","QD","TRANSDERMAL","BASELINE","02-SEP-2014","16-SEP-2014"],[519,"CDISCPILOT01","716","1177","PLACEBO","0","mg","PATCH","QD","TRANSDERMAL","WEEK 2","17-SEP-2014","17-FEB-2015"],[520,"CDISCPILOT01","716","1177","PLACEBO","0","mg","PATCH","QD","TRANSDERMAL","WEEK 24","18-FEB-2015","05-MAR-2015"],[521,"CDISCPILOT01","716","1189","XANOMELINE","54","mg","PATCH","QD","TRANSDERMAL","BASELINE","09-OCT-2012","24-OCT-2012"],[522,"CDISCPILOT01","716","1189","XANOMELINE","81","mg","PATCH","QD","TRANSDERMAL","WEEK 2","25-OCT-2012","27-FEB-2013"],[523,"CDISCPILOT01","716","1229","XANOMELINE","54","mg","PATCH","QD","TRANSDERMAL","BASELINE","20-FEB-2013","06-MAR-2013"],[524,"CDISCPILOT01","716","1229","XANOMELINE","81","mg","PATCH","QD","TRANSDERMAL","WEEK 2","07-MAR-2013","31-MAR-2013"],[525,"CDISCPILOT01","716","1298","XANOMELINE","54","mg","PATCH","QD","TRANSDERMAL","BASELINE","08-APR-2013","22-APR-2013"],[526,"CDISCPILOT01","716","1298","XANOMELINE","54","mg","PATCH","QD","TRANSDERMAL","WEEK 2","23-APR-2013","28-JUN-2013"],[527,"CDISCPILOT01","716","1308","PLACEBO","0","mg","PATCH","QD","TRANSDERMAL","BASELINE","28-AUG-2013","12-SEP-2013"],[528,"CDISCPILOT01","716","1308","PLACEBO","0","mg","PATCH","QD","TRANSDERMAL","WEEK 2","13-SEP-2013","07-OCT-2013"],[529,"CDISCPILOT01","716","1311","XANOMELINE","54","mg","PATCH","QD","TRANSDERMAL","BASELINE","14-MAY-2014","28-MAY-2014"],[530,"CDISCPILOT01","716","1311","XANOMELINE","54","mg","PATCH","QD","TRANSDERMAL","WEEK 2","29-MAY-2014","21-SEP-2014"],[531,"CDISCPILOT01","716","1364","XANOMELINE","54","mg","PATCH","QD","TRANSDERMAL","BASELINE","04-JUL-2013","17-JUL-2013"],[532,"CDISCPILOT01","716","1364","XANOMELINE","81","mg","PATCH","QD","TRANSDERMAL","WEEK 2","18-JUL-2013","23-DEC-2013"],[533,"CDISCPILOT01","716","1364","XANOMELINE","54","mg","PATCH","QD","TRANSDERMAL","WEEK 24","24-DEC-2013","09-JAN-2014"],[534,"CDISCPILOT01","716","1373","XANOMELINE","54","mg","PATCH","QD","TRANSDERMAL","BASELINE","14-DEC-2012","30-DEC-2012"],[535,"CDISCPILOT01","716","1373","XANOMELINE","81","mg","PATCH","QD","TRANSDERMAL","WEEK 2","31-DEC-2012","27-FEB-2013"],[536,"CDISCPILOT01","716","1418","XANOMELINE","54","mg","PATCH","QD","TRANSDERMAL","BASELINE","05-MAY-2013","19-MAY-2013"],[537,"CDISCPILOT01","716","1418","XANOMELINE","81","mg","PATCH","QD","TRANSDERMAL","WEEK 2","20-MAY-2013","06-NOV-2013"],[538,"CDISCPILOT01","716","1418","XANOMELINE","54","mg","PATCH","QD","TRANSDERMAL","WEEK 24","07-NOV-2013","20-NOV-2013"],[539,"CDISCPILOT01","716","1441","PLACEBO","0","mg","PATCH","QD","TRANSDERMAL","BASELINE","22-JAN-2014","06-FEB-2014"],[540,"CDISCPILOT01","716","1441","PLACEBO","0","mg","PATCH","QD","TRANSDERMAL","WEEK 2","07-FEB-2014","08-JUL-2014"],[541,"CDISCPILOT01","716","1441","PLACEBO","0","mg","PATCH","QD","TRANSDERMAL","WEEK 24","09-JUL-2014","22-JUL-2014"],[542,"CDISCPILOT01","716","1447","XANOMELINE","54","mg","PATCH","QD","TRANSDERMAL","BASELINE","16-DEC-2013","31-DEC-2013"],[543,"CDISCPILOT01","716","1447","XANOMELINE","81","mg","PATCH","QD","TRANSDERMAL","WEEK 2","01-JAN-2014","07-JUN-2014"],[544,"CDISCPILOT01","716","1447","XANOMELINE","54","mg","PATCH","QD","TRANSDERMAL","WEEK 24","08-JUN-2014","17-JUN-2014"],[545,"CDISCPILOT01","717","1004","XANOMELINE","54","mg","PATCH","QD","TRANSDERMAL","BASELINE","14-JAN-2014","28-JAN-2014"],[546,"CDISCPILOT01","717","1004","XANOMELINE","54","mg","PATCH","QD","TRANSDERMAL","WEEK 2","29-JAN-2014","01-JUL-2014"],[547,"CDISCPILOT01","717","1004","XANOMELINE","54","mg","PATCH","QD","TRANSDERMAL","WEEK 24","02-JUL-2014","16-JUL-2014"],[548,"CDISCPILOT01","717","1109","XANOMELINE","54","mg","PATCH","QD","TRANSDERMAL","BASELINE","27-JAN-2014","10-FEB-2014"],[549,"CDISCPILOT01","717","1109","XANOMELINE","81","mg","PATCH","QD","TRANSDERMAL","WEEK 2","11-FEB-2014","18-JUL-2014"],[550,"CDISCPILOT01","717","1109","XANOMELINE","54","mg","PATCH","QD","TRANSDERMAL","WEEK 24","19-JUL-2014","28-JUL-2014"],[551,"CDISCPILOT01","717","1174","XANOMELINE","54","mg","PATCH","QD","TRANSDERMAL","BASELINE","22-JAN-2013","04-FEB-2013"],[552,"CDISCPILOT01","717","1174","XANOMELINE","81","mg","PATCH","QD","TRANSDERMAL","WEEK 2","05-FEB-2013","07-JUL-2013"],[553,"CDISCPILOT01","717","1174","XANOMELINE","54","mg","PATCH","QD","TRANSDERMAL","WEEK 24","08-JUL-2013","24-JUL-2013"],[554,"CDISCPILOT01","717","1201","PLACEBO","0","mg","PATCH","QD","TRANSDERMAL","BASELINE","19-DEC-2013","03-JAN-2014"],[555,"CDISCPILOT01","717","1201","PLACEBO","0","mg","PATCH","QD","TRANSDERMAL","WEEK 2","04-JAN-2014","21-FEB-2014"],[556,"CDISCPILOT01","717","1344","PLACEBO","0","mg","PATCH","QD","TRANSDERMAL","BASELINE","11-JAN-2014","24-JAN-2014"],[557,"CDISCPILOT01","717","1344","PLACEBO","0","mg","PATCH","QD","TRANSDERMAL","WEEK 2","25-JAN-2014","14-MAR-2014"],[558,"CDISCPILOT01","717","1357","XANOMELINE","54","mg","PATCH","QD","TRANSDERMAL","BASELINE","01-MAY-2013","15-MAY-2013"],[559,"CDISCPILOT01","717","1357","XANOMELINE","81","mg","PATCH","QD","TRANSDERMAL","WEEK 2","16-MAY-2013","14-OCT-2013"],[560,"CDISCPILOT01","717","1446","XANOMELINE","54","mg","PATCH","QD","TRANSDERMAL","BASELINE","01-SEP-2013","16-SEP-2013"],[561,"CDISCPILOT01","717","1446","XANOMELINE","54","mg","PATCH","QD","TRANSDERMAL","WEEK 2","17-SEP-2013","16-FEB-2014"],[562,"CDISCPILOT01","717","1446","XANOMELINE","54","mg","PATCH","QD","TRANSDERMAL","WEEK 24","17-FEB-2014","03-MAR-2014"],[563,"CDISCPILOT01","718","1066","XANOMELINE","54","mg","PATCH","QD","TRANSDERMAL","BASELINE","07-JUL-2013","16-JUL-2013"],[564,"CDISCPILOT01","718","1079","XANOMELINE","54","mg","PATCH","QD","TRANSDERMAL","BASELINE","19-SEP-2012","03-OCT-2012"],[565,"CDISCPILOT01","718","1079","XANOMELINE","54","mg","PATCH","QD","TRANSDERMAL","WEEK 2","04-OCT-2012","31-OCT-2012"],[566,"CDISCPILOT01","718","1101","XANOMELINE","54","mg","PATCH","QD","TRANSDERMAL","BASELINE","17-FEB-2013","03-MAR-2013"],[567,"CDISCPILOT01","718","1101","XANOMELINE","81","mg","PATCH","QD","TRANSDERMAL","WEEK 2","04-MAR-2013","31-JUL-2013"],[568,"CDISCPILOT01","718","1139","PLACEBO","0","mg","PATCH","QD","TRANSDERMAL","BASELINE","19-MAY-2013","02-JUN-2013"],[569,"CDISCPILOT01","718","1139","PLACEBO","0","mg","PATCH","QD","TRANSDERMAL","WEEK 2","03-JUN-2013","03-NOV-2013"],[570,"CDISCPILOT01","718","1139","PLACEBO","0","mg","PATCH","QD","TRANSDERMAL","WEEK 24","04-NOV-2013","17-NOV-2013"],[571,"CDISCPILOT01","718","1150","PLACEBO","0","mg","PATCH","QD","TRANSDERMAL","BASELINE","19-JAN-2013","02-FEB-2013"],[572,"CDISCPILOT01","718","1150","PLACEBO","0","mg","PATCH","QD","TRANSDERMAL","WEEK 2","03-FEB-2013","07-JUL-2013"],[573,"CDISCPILOT01","718","1150","PLACEBO","0","mg","PATCH","QD","TRANSDERMAL","WEEK 24","08-JUL-2013","29-JUL-2013"],[574,"CDISCPILOT01","718","1170","XANOMELINE","54","mg","PATCH","QD","TRANSDERMAL","BASELINE","16-SEP-2013","29-SEP-2013"],[575,"CDISCPILOT01","718","1170","XANOMELINE","54","mg","PATCH","QD","TRANSDERMAL","WEEK 2","30-SEP-2013","12-OCT-2013"],[576,"CDISCPILOT01","718","1172","PLACEBO","0","mg","PATCH","QD","TRANSDERMAL","BASELINE","21-SEP-2013","05-OCT-2013"],[577,"CDISCPILOT01","718","1172","PLACEBO","0","mg","PATCH","QD","TRANSDERMAL","WEEK 2","06-OCT-2013","29-NOV-2013"],[578,"CDISCPILOT01","718","1250","XANOMELINE","54","mg","PATCH","QD","TRANSDERMAL","BASELINE","21-SEP-2013","03-OCT-2013"],[579,"CDISCPILOT01","718","1250","XANOMELINE","54","mg","PATCH","QD","TRANSDERMAL","WEEK 2","04-OCT-2013","31-JAN-2014"],[580,"CDISCPILOT01","718","1254","XANOMELINE","54","mg","PATCH","QD","TRANSDERMAL","BASELINE","10-JUL-2013","25-JUL-2013"],[581,"CDISCPILOT01","718","1254","XANOMELINE","54","mg","PATCH","QD","TRANSDERMAL","WEEK 2","26-JUL-2013","26-DEC-2013"],[582,"CDISCPILOT01","718","1254","XANOMELINE","54","mg","PATCH","QD","TRANSDERMAL","WEEK 24","27-DEC-2013","09-JAN-2014"],[583,"CDISCPILOT01","718","1328","XANOMELINE","54","mg","PATCH","QD","TRANSDERMAL","BASELINE","01-FEB-2013","14-FEB-2013"],[584,"CDISCPILOT01","718","1328","XANOMELINE","81","mg","PATCH","QD","TRANSDERMAL","WEEK 2","15-FEB-2013","18-APR-2013"],[585,"CDISCPILOT01","718","1355","PLACEBO","0","mg","PATCH","QD","TRANSDERMAL","BASELINE","28-FEB-2013","16-MAR-2013"],[586,"CDISCPILOT01","718","1355","PLACEBO","0","mg","PATCH","QD","TRANSDERMAL","WEEK 2","17-MAR-2013","15-AUG-2013"],[587,"CDISCPILOT01","718","1355","PLACEBO","0","mg","PATCH","QD","TRANSDERMAL","WEEK 24","16-AUG-2013","29-AUG-2013"],[588,"CDISCPILOT01","718","1371","XANOMELINE","54","mg","PATCH","QD","TRANSDERMAL","BASELINE","26-APR-2013","08-MAY-2013"],[589,"CDISCPILOT01","718","1371","XANOMELINE","81","mg","PATCH","QD","TRANSDERMAL","WEEK 2","09-MAY-2013","01-AUG-2013"],[590,"CDISCPILOT01","718","1427","XANOMELINE","54","mg","PATCH","QD","TRANSDERMAL","BASELINE","17-DEC-2012","31-DEC-2012"],[591,"CDISCPILOT01","718","1427","XANOMELINE","81","mg","PATCH","QD","TRANSDERMAL","WEEK 2","01-JAN-2013","11-FEB-2013"]]}}}}