{"creationDateTime":"2024-02-14T11:46:11","datasetJSONVersion":"1.0.0","fileOID":"CDISCPILOT01.mh","referenceData":{"studyOID":"CDISCPILOT01","metaDataVersionOID":"MDV.CDISCPILOT01","itemGroupData":{"IG.MH":{"records":1818,"name":"MH","label":"Medical History (MH)","items":[{"OID":"ITEMGROUPDATASEQ","name":"ITEMGROUPDATASEQ","label":"Record Identifier","type":"integer"},{"OID":"IT.MH.STUDYID","name":"STUDYID","label":"Study Identifier","type":"string","length":12,"displayFormat":"."},{"OID":"IT.MH.SITEID","name":"SITEID","label":"Study Site Identifier","type":"string","length":4,"displayFormat":"."},{"OID":"IT.MH.SUBJID","name":"SUBJID","label":"Subject Identifier for the Study","type":"string","length":4,"displayFormat":"."},{"OID":"IT.MH.MHSPID","name":"MHSPID","label":"Medical History Event Sponsor-Defined Id","type":"string","length":3,"displayFormat":"."},{"OID":"IT.MH.MHTERM","name":"MHTERM","label":"Medical History Event Reported Term","type":"string","length":19,"displayFormat":"."},{"OID":"IT.MH.MHDECOD","name":"MHDECOD","label":"Medical History Event Dictionary-Derived","type":"string","length":44,"displayFormat":"."},{"OID":"IT.MH.MHLLT","name":"MHLLT","label":"Medical History Event Lowest Level Term","type":"string","length":200,"displayFormat":"."},{"OID":"IT.MH.MHHLT","name":"MHHLT","label":"Medical History Event High Level Term","type":"string","length":200,"displayFormat":"."},{"OID":"IT.MH.MHHLGT","name":"MHHLGT","label":"Medical History Event High Level Group T","type":"string","length":200,"displayFormat":"."},{"OID":"IT.MH.MHCAT","name":"MHCAT","label":"Category for Medical History","type":"string","length":34,"displayFormat":"."},{"OID":"IT.MH.MHSOC","name":"MHSOC","label":"Medical History Event Primary System Org","type":"string","length":67,"displayFormat":"."},{"OID":"IT.MH.MHSEV","name":"MHSEV","label":"Medical History Event Severity/Intensity","type":"float","length":8,"displayFormat":"."},{"OID":"IT.MH.VISIT","name":"VISIT","label":"Visit Name","type":"string","length":19,"displayFormat":"."},{"OID":"IT.MH.MHDAT","name":"MHDAT","label":"Medical History Date of Collection","type":"string","length":11,"displayFormat":"."},{"OID":"IT.MH.MHSTDAT","name":"MHSTDAT","label":"Medical History Event Start Date","type":"string","length":11,"displayFormat":"."}],"itemData":[[1,"CDISCPILOT01","701","1015","","ALZHEIMER'S DISEASE","","","","","PRIMARY DIAGNOSIS","",null,"SCREENING 1","26-DEC-2013","30-APR-2010"],[2,"CDISCPILOT01","701","1015","","VERBATIM_0140","HYSTERECTOMY","SUBTOTAL HYSTERECTOMY","HLT_0675","HLGT_0657","HISTORICAL DIAGNOSIS","SURGICAL AND MEDICAL PROCEDURES",null,"SCREENING 1","26-DEC-2013","1986"],[3,"CDISCPILOT01","701","1015","","VERBATIM_0539","CHOLELITHIASIS","GALLBLADDER STONES","HLT_0084","HLGT_0177","HISTORICAL DIAGNOSIS","HEPATOBILIARY DISORDERS",null,"SCREENING 1","26-DEC-2013","2012"],[4,"CDISCPILOT01","701","1015","","VERBATIM_1004","THYROIDECTOMY PARTIAL","THYROIDECTOMY PARTIAL","HLT_0243","HLGT_0016","HISTORICAL DIAGNOSIS","SURGICAL AND MEDICAL PROCEDURES",null,"SCREENING 1","26-DEC-2013","1973"],[5,"CDISCPILOT01","701","1015","","VERBATIM_1230","PHARYNGOLARYNGEAL PAIN","SORE THROAT","HLT_0130","HLGT_0402","HISTORICAL DIAGNOSIS","RESPIRATORY, THORACIC AND MEDIASTINAL DISORDERS",null,"SCREENING 1","26-DEC-2013","DEC-2013"],[6,"CDISCPILOT01","701","1015","","VERBATIM_1716","TONSILLECTOMY","TONSILLECTOMY","HLT_0202","HLGT_0199","HISTORICAL DIAGNOSIS","SURGICAL AND MEDICAL PROCEDURES",null,"SCREENING 1","26-DEC-2013","1973"],[7,"CDISCPILOT01","701","1015","E01","VERBATIM_0135","PALPITATIONS","PALPITATIONS","HLT_0493","HLGT_0593","SIGNIFICANT PRE-EXISTING CONDITION","CARDIAC DISORDERS",1,"SCREENING 1","26-DEC-2013",""],[8,"CDISCPILOT01","701","1015","E02","VERBATIM_0841","DYSPEPSIA","HEARTBURN","HLT_0244","HLGT_0716","SIGNIFICANT PRE-EXISTING CONDITION","GASTROINTESTINAL DISORDERS",1,"SCREENING 1","26-DEC-2013",""],[9,"CDISCPILOT01","701","1015","E03","VERBATIM_0301","HEADACHE","HEADACHE","HLT_0064","HLGT_0344","SIGNIFICANT PRE-EXISTING CONDITION","NERVOUS SYSTEM DISORDERS",1,"SCREENING 1","26-DEC-2013",""],[10,"CDISCPILOT01","701","1015","E04","VERBATIM_1779","HYPOAESTHESIA","NUMBNESS IN LEG","HLT_0014","HLGT_0528","SIGNIFICANT PRE-EXISTING CONDITION","NERVOUS SYSTEM DISORDERS",1,"SCREENING 1","26-DEC-2013",""],[11,"CDISCPILOT01","701","1015","E05","VERBATIM_0825","TINNITUS","TINNITUS","HLT_0570","HLGT_0180","SIGNIFICANT PRE-EXISTING CONDITION","EAR AND LABYRINTH DISORDERS",1,"SCREENING 1","26-DEC-2013",""],[12,"CDISCPILOT01","701","1023","","ALZHEIMER'S DISEASE","","","","","PRIMARY DIAGNOSIS","",null,"SCREENING 1","22-JUL-2012","11-MAR-2006"],[13,"CDISCPILOT01","701","1023","","VERBATIM_0073","CELLULITIS","CELLULITIS OF FOOT","HLT_0613","HLGT_0066","HISTORICAL DIAGNOSIS","INFECTIONS AND INFESTATIONS",null,"SCREENING 1","22-JUL-2012","2009"],[14,"CDISCPILOT01","701","1023","","VERBATIM_0291","BACK PAIN","LOW BACK PAIN","HLT_0115","HLGT_0508","HISTORICAL DIAGNOSIS","MUSCULOSKELETAL AND CONNECTIVE TISSUE DISORDERS",null,"SCREENING 1","22-JUL-2012","2007"],[15,"CDISCPILOT01","701","1023","","VERBATIM_0342","HYPERTENSION","HYPERTENSION","HLT_0228","HLGT_0476","HISTORICAL DIAGNOSIS","VASCULAR DISORDERS",null,"SCREENING 1","22-JUL-2012","OCT-2005"],[16,"CDISCPILOT01","701","1023","","VERBATIM_0388","PENILE PROSTHESIS INSERTION","PENILE PROSTHESIS INSERTION","HLT_0448","HLGT_0303","HISTORICAL DIAGNOSIS","SURGICAL AND MEDICAL PROCEDURES",null,"SCREENING 1","22-JUL-2012","APR-2006"],[17,"CDISCPILOT01","701","1023","","VERBATIM_0596","HYPOAESTHESIA","NUMBNESS OF UPPER ARM","HLT_0014","HLGT_0528","HISTORICAL DIAGNOSIS","NERVOUS SYSTEM DISORDERS",null,"SCREENING 1","22-JUL-2012","1982"],[18,"CDISCPILOT01","701","1023","","VERBATIM_0788","APPENDICITIS","APPENDICITIS","HLT_0703","HLGT_0283","HISTORICAL DIAGNOSIS","INFECTIONS AND INFESTATIONS",null,"SCREENING 1","22-JUL-2012","1956"],[19,"CDISCPILOT01","701","1023","","VERBATIM_1002","UPPER LIMB FRACTURE","ELBOW FRACTURE","HLT_0472","HLGT_0247","HISTORICAL DIAGNOSIS","INJURY, POISONING AND PROCEDURAL COMPLICATIONS",null,"SCREENING 1","22-JUL-2012","1963"],[20,"CDISCPILOT01","701","1023","","VERBATIM_1154","ECZEMA","ECZEMA","HLT_0747","HLGT_0748","HISTORICAL DIAGNOSIS","SKIN AND SUBCUTANEOUS TISSUE DISORDERS",null,"SCREENING 1","22-JUL-2012","2007"],[21,"CDISCPILOT01","701","1023","","VERBATIM_1200","SCIATICA","SCIATICA","HLT_0242","HLGT_0293","HISTORICAL DIAGNOSIS","NERVOUS SYSTEM DISORDERS",null,"SCREENING 1","22-JUL-2012","2005"],[22,"CDISCPILOT01","701","1023","","VERBATIM_1364","PRURITUS","ITCHY SKIN","HLT_0778","HLGT_0695","HISTORICAL DIAGNOSIS","SKIN AND SUBCUTANEOUS TISSUE DISORDERS",null,"SCREENING 1","22-JUL-2012","2009"],[23,"CDISCPILOT01","701","1023","","VERBATIM_1554","INGUINAL HERNIA REPAIR","INGUINAL HERNIA REPAIR","HLT_0320","HLGT_0772","HISTORICAL DIAGNOSIS","SURGICAL AND MEDICAL PROCEDURES",null,"SCREENING 1","22-JUL-2012","1999"],[24,"CDISCPILOT01","701","1023","","VERBATIM_1617","PAIN TRAUMA ACTIVATED","PAIN TRAUMA ACTIVATED","HLT_0579","HLGT_0732","HISTORICAL DIAGNOSIS","INJURY, POISONING AND PROCEDURAL COMPLICATIONS",null,"SCREENING 1","22-JUL-2012","APR-2006"],[25,"CDISCPILOT01","701","1023","","VERBATIM_1769","SINUSITIS","SINUSITIS","HLT_0262","HLGT_0249","HISTORICAL DIAGNOSIS","INFECTIONS AND INFESTATIONS",null,"SCREENING 1","22-JUL-2012","1978"],[26,"CDISCPILOT01","701","1023","","VERBATIM_1775","APPENDICECTOMY","APPENDECTOMY","HLT_0707","HLGT_0363","HISTORICAL DIAGNOSIS","SURGICAL AND MEDICAL PROCEDURES",null,"SCREENING 1","22-JUL-2012","1956"],[27,"CDISCPILOT01","701","1023","E01","VERBATIM_1042","DYSPNOEA EXERTIONAL","DYSPNEA EXERTIONAL","HLT_0465","HLGT_0475","SIGNIFICANT PRE-EXISTING CONDITION","RESPIRATORY, THORACIC AND MEDIASTINAL DISORDERS",1,"SCREENING 1","22-JUL-2012",""],[28,"CDISCPILOT01","701","1023","E02","VERBATIM_0249","GASTROOESOPHAGEAL REFLUX DISEASE","GASTROESOPHAGEAL REFLUX","HLT_0407","HLGT_0304","SIGNIFICANT PRE-EXISTING CONDITION","GASTROINTESTINAL DISORDERS",1,"SCREENING 1","22-JUL-2012",""],[29,"CDISCPILOT01","701","1023","E03","VERBATIM_0699","HIATUS HERNIA","HIATAL HERNIA","HLT_0159","HLGT_0109","SIGNIFICANT PRE-EXISTING CONDITION","GASTROINTESTINAL DISORDERS",1,"SCREENING 1","22-JUL-2012",""],[30,"CDISCPILOT01","701","1023","E04","VERBATIM_0800","DYSPEPSIA","INDIGESTION","HLT_0244","HLGT_0716","SIGNIFICANT PRE-EXISTING CONDITION","GASTROINTESTINAL DISORDERS",1,"SCREENING 1","22-JUL-2012",""],[31,"CDISCPILOT01","701","1023","E05","VERBATIM_0929","HEADACHE","HEADACHE","HLT_0064","HLGT_0344","SIGNIFICANT PRE-EXISTING CONDITION","NERVOUS SYSTEM DISORDERS",1,"SCREENING 1","22-JUL-2012",""],[32,"CDISCPILOT01","701","1023","E06","VERBATIM_0461","MYALGIA","MUSCULAR PAIN","HLT_0700","HLGT_0121","SIGNIFICANT PRE-EXISTING CONDITION","MUSCULOSKELETAL AND CONNECTIVE TISSUE DISORDERS",1,"SCREENING 1","22-JUL-2012",""],[33,"CDISCPILOT01","701","1023","E07","VERBATIM_1532","MYOPIA","MYOPIA","HLT_0282","HLGT_0271","SIGNIFICANT PRE-EXISTING CONDITION","EYE DISORDERS",1,"SCREENING 1","22-JUL-2012",""],[34,"CDISCPILOT01","701","1028","","ALZHEIMER'S DISEASE","","","","","PRIMARY DIAGNOSIS","",null,"SCREENING 1","11-JUL-2013","16-DEC-2009"],[35,"CDISCPILOT01","701","1028","","VERBATIM_1006","LIPECTOMY","LIPECTOMY","HLT_0233","HLGT_0786","HISTORICAL DIAGNOSIS","SURGICAL AND MEDICAL PROCEDURES",null,"SCREENING 1","11-JUL-2013","1981"],[36,"CDISCPILOT01","701","1028","","VERBATIM_1775","APPENDICECTOMY","APPENDECTOMY","HLT_0707","HLGT_0363","HISTORICAL DIAGNOSIS","SURGICAL AND MEDICAL PROCEDURES",null,"SCREENING 1","11-JUL-2013","1968"],[37,"CDISCPILOT01","701","1028","E01","VERBATIM_0428","LIPOMA","LIPOMA","HLT_0487","HLGT_0591","SIGNIFICANT PRE-EXISTING CONDITION","NEOPLASMS BENIGN, MALIGNANT AND UNSPECIFIED (INCL CYSTS AND POLYPS)",2,"SCREENING 1","11-JUL-2013",""],[38,"CDISCPILOT01","701","1028","E02","VERBATIM_1686","ARTHRITIS","ARTHRITIS","HLT_0019","HLGT_0587","SIGNIFICANT PRE-EXISTING CONDITION","MUSCULOSKELETAL AND CONNECTIVE TISSUE DISORDERS",2,"SCREENING 1","11-JUL-2013",""],[39,"CDISCPILOT01","701","1028","E03","VERBATIM_0507","PRESBYOPIA","PRESBYOPIA","HLT_0230","HLGT_0759","SIGNIFICANT PRE-EXISTING CONDITION","EYE DISORDERS",1,"SCREENING 1","11-JUL-2013",""],[40,"CDISCPILOT01","701","1033","","ALZHEIMER'S DISEASE","","","","","PRIMARY DIAGNOSIS","",null,"SCREENING 1","10-MAR-2014","02-AUG-2009"],[41,"CDISCPILOT01","701","1033","","VERBATIM_0116","UMBILICAL HERNIA REPAIR","UMBILICAL HERNIA REPAIR","HLT_0278","HLGT_0377","HISTORICAL DIAGNOSIS","SURGICAL AND MEDICAL PROCEDURES",null,"SCREENING 1","10-MAR-2014","1993"],[42,"CDISCPILOT01","701","1033","","VERBATIM_0201","IRON DEFICIENCY ANAEMIA","IRON DEFICIENCY ANEMIA","HLT_0331","HLGT_0739","HISTORICAL DIAGNOSIS","BLOOD AND LYMPHATIC SYSTEM DISORDERS",null,"SCREENING 1","10-MAR-2014","1972"],[43,"CDISCPILOT01","701","1033","","VERBATIM_0429","LACERATION","LACERATION","HLT_0668","HLGT_0567","HISTORICAL DIAGNOSIS","INJURY, POISONING AND PROCEDURAL COMPLICATIONS",null,"SCREENING 1","10-MAR-2014","1982"],[44,"CDISCPILOT01","701","1033","","VERBATIM_0581","SYNCOPE","FAINTING","HLT_0440","HLGT_0310","HISTORICAL DIAGNOSIS","NERVOUS SYSTEM DISORDERS",null,"SCREENING 1","10-MAR-2014","1982"],[45,"CDISCPILOT01","701","1033","","VERBATIM_0752","SENSORY LOSS","LOSS OF SENSATION","HLT_0164","HLGT_0718","HISTORICAL DIAGNOSIS","NERVOUS SYSTEM DISORDERS",null,"SCREENING 1","10-MAR-2014","1982"],[46,"CDISCPILOT01","701","1033","","VERBATIM_0816","EOSINOPHILIC PNEUMONIA","EOSINOPHILIC PNEUMONIA","HLT_0207","HLGT_0529","HISTORICAL DIAGNOSIS","RESPIRATORY, THORACIC AND MEDIASTINAL DISORDERS",null,"SCREENING 1","10-MAR-2014","2008"],[47,"CDISCPILOT01","701","1033","","VERBATIM_0868","NERVE COMPRESSION","NERVE COMPRESSION","HLT_0463","HLGT_0502","HISTORICAL DIAGNOSIS","NERVOUS SYSTEM DISORDERS",null,"SCREENING 1","10-MAR-2014","1955"],[48,"CDISCPILOT01","701","1033","","VERBATIM_0870","RIB FRACTURE","FRACTURED RIBS","HLT_0292","HLGT_0583","HISTORICAL DIAGNOSIS","INJURY, POISONING AND PROCEDURAL COMPLICATIONS",null,"SCREENING 1","10-MAR-2014","2007"],[49,"CDISCPILOT01","701","1033","","VERBATIM_0991","HAND REPAIR OPERATION","HAND REPAIR OPERATION","HLT_0581","HLGT_0276","HISTORICAL DIAGNOSIS","SURGICAL AND MEDICAL PROCEDURES",null,"SCREENING 1","10-MAR-2014","1982"],[50,"CDISCPILOT01","701","1033","","VERBATIM_1156","UPPER LIMB FRACTURE","ELBOW FRACTURE","HLT_0472","HLGT_0247","HISTORICAL DIAGNOSIS","INJURY, POISONING AND PROCEDURAL COMPLICATIONS",null,"SCREENING 1","10-MAR-2014","2007"],[51,"CDISCPILOT01","701","1033","","VERBATIM_1209","JOINT ARTHROPLASTY","JOINT PROSTHESIS INSERTION","HLT_0416","HLGT_0120","HISTORICAL DIAGNOSIS","SURGICAL AND MEDICAL PROCEDURES",null,"SCREENING 1","10-MAR-2014","2008"],[52,"CDISCPILOT01","701","1033","","VERBATIM_1425","LOCALISED OEDEMA","LOCALIZED EDEMA","HLT_0410","HLGT_0372","HISTORICAL DIAGNOSIS","GENERAL DISORDERS AND ADMINISTRATION SITE CONDITIONS",null,"SCREENING 1","10-MAR-2014","1964"],[53,"CDISCPILOT01","701","1033","","VERBATIM_1457","JAW FRACTURE","FRACTURED JAW","HLT_0488","HLGT_0420","HISTORICAL DIAGNOSIS","INJURY, POISONING AND PROCEDURAL COMPLICATIONS",null,"SCREENING 1","10-MAR-2014","2007"],[54,"CDISCPILOT01","701","1033","","VERBATIM_1594","PLEURISY","PLEURISY","HLT_0268","HLGT_0356","HISTORICAL DIAGNOSIS","RESPIRATORY, THORACIC AND MEDIASTINAL DISORDERS",null,"SCREENING 1","10-MAR-2014","1955"],[55,"CDISCPILOT01","701","1033","","VERBATIM_1716","TONSILLECTOMY","TONSILLECTOMY","HLT_0202","HLGT_0199","HISTORICAL DIAGNOSIS","SURGICAL AND MEDICAL PROCEDURES",null,"SCREENING 1","10-MAR-2014","1951"],[56,"CDISCPILOT01","701","1033","","VERBATIM_1756","UMBILICAL HERNIA","UMBILICAL HERNIA","HLT_0067","HLGT_0187","HISTORICAL DIAGNOSIS","GASTROINTESTINAL DISORDERS",null,"SCREENING 1","10-MAR-2014","1993"],[57,"CDISCPILOT01","701","1033","E01","VERBATIM_1653","OEDEMA PERIPHERAL","ANKLE EDEMA","HLT_0661","HLGT_0137","SIGNIFICANT PRE-EXISTING CONDITION","GENERAL DISORDERS AND ADMINISTRATION SITE CONDITIONS",1,"SCREENING 1","10-MAR-2014",""],[58,"CDISCPILOT01","701","1033","E02","VERBATIM_0138","BENIGN PROSTATIC HYPERPLASIA","BENIGN PROSTATIC HYPERTROPHY","HLT_0215","HLGT_0568","SIGNIFICANT PRE-EXISTING CONDITION","REPRODUCTIVE SYSTEM AND BREAST DISORDERS",1,"SCREENING 1","10-MAR-2014",""],[59,"CDISCPILOT01","701","1033","E03","VERBATIM_0165","BALANCE DISORDER","BALANCE DIFFICULTY","HLT_0541","HLGT_0101","SIGNIFICANT PRE-EXISTING CONDITION","NERVOUS SYSTEM DISORDERS",1,"SCREENING 1","10-MAR-2014",""],[60,"CDISCPILOT01","701","1033","E04","VERBATIM_0858","MONARTHRITIS","GONARTHRITIS","HLT_0592","HLGT_0196","SIGNIFICANT PRE-EXISTING CONDITION","MUSCULOSKELETAL AND CONNECTIVE TISSUE DISORDERS",1,"SCREENING 1","10-MAR-2014",""],[61,"CDISCPILOT01","701","1033","E05","VERBATIM_0672","ARTHRALGIA","KNEE PAIN","HLT_0375","HLGT_0610","SIGNIFICANT PRE-EXISTING CONDITION","MUSCULOSKELETAL AND CONNECTIVE TISSUE DISORDERS",1,"SCREENING 1","10-MAR-2014",""],[62,"CDISCPILOT01","701","1033","E06","VERBATIM_1532","MYOPIA","MYOPIA","HLT_0282","HLGT_0271","SIGNIFICANT PRE-EXISTING CONDITION","EYE DISORDERS",1,"SCREENING 1","10-MAR-2014",""],[63,"CDISCPILOT01","701","1033","E07","VERBATIM_1612","NASAL CONGESTION","NASAL CONGESTION","HLT_0118","HLGT_0549","SIGNIFICANT PRE-EXISTING CONDITION","RESPIRATORY, THORACIC AND MEDIASTINAL DISORDERS",1,"SCREENING 1","10-MAR-2014",""],[64,"CDISCPILOT01","701","1033","E08","VERBATIM_1421","COUGH","COUGH","HLT_0701","HLGT_0280","SIGNIFICANT PRE-EXISTING CONDITION","RESPIRATORY, THORACIC AND MEDIASTINAL DISORDERS",1,"SCREENING 1","10-MAR-2014",""],[65,"CDISCPILOT01","701","1033","E09","VERBATIM_0746","ANGINA PECTORIS","ANGINA PECTORIS","HLT_0033","HLGT_0063","SIGNIFICANT PRE-EXISTING CONDITION","CARDIAC DISORDERS",1,"SCREENING 1","10-MAR-2014",""],[66,"CDISCPILOT01","701","1034","","ALZHEIMER'S DISEASE","","","","","PRIMARY DIAGNOSIS","",null,"SCREENING 1","24-JUN-2014","29-SEP-2011"],[67,"CDISCPILOT01","701","1034","","VERBATIM_0122","LOWER LIMB FRACTURE","LEG FRACTURE","HLT_0348","HLGT_0435","HISTORICAL DIAGNOSIS","INJURY, POISONING AND PROCEDURAL COMPLICATIONS",null,"SCREENING 1","24-JUN-2014","2012"],[68,"CDISCPILOT01","701","1034","","VERBATIM_0936","HYSTERECTOMY","HYSTERECTOMY","HLT_0675","HLGT_0657","HISTORICAL DIAGNOSIS","SURGICAL AND MEDICAL PROCEDURES",null,"SCREENING 1","24-JUN-2014","1960"],[69,"CDISCPILOT01","701","1034","","VERBATIM_0973","MUSCLE SPASMS","MUSCLE SPASMS","HLT_0078","HLGT_0750","HISTORICAL DIAGNOSIS","MUSCULOSKELETAL AND CONNECTIVE TISSUE DISORDERS",null,"SCREENING 1","24-JUN-2014","21-DEC-2013"],[70,"CDISCPILOT01","701","1034","","VERBATIM_1132","FOOT FRACTURE","FOOT FRACTURE","HLT_0768","HLGT_0287","HISTORICAL DIAGNOSIS","INJURY, POISONING AND PROCEDURAL COMPLICATIONS",null,"SCREENING 1","24-JUN-2014","2004"],[71,"CDISCPILOT01","701","1034","","VERBATIM_1133","ANAL FISTULA","RECTAL FISTULA","HLT_0653","HLGT_0268","HISTORICAL DIAGNOSIS","GASTROINTESTINAL DISORDERS",null,"SCREENING 1","24-JUN-2014","1962"],[72,"CDISCPILOT01","701","1034","","VERBATIM_1162","FACE LIFT","FACE LIFT","HLT_0743","HLGT_0520","HISTORICAL DIAGNOSIS","SURGICAL AND MEDICAL PROCEDURES",null,"SCREENING 1","24-JUN-2014","21-AUG-2011"],[73,"CDISCPILOT01","701","1034","","VERBATIM_1680","BLOOD PRESSURE INCREASED","BLOOD PRESSURE INCREASED","HLT_0399","HLGT_0647","HISTORICAL DIAGNOSIS","INVESTIGATIONS",null,"SCREENING 1","24-JUN-2014","11-JUN-2014"],[74,"CDISCPILOT01","701","1034","","VERBATIM_1716","TONSILLECTOMY","TONSILLECTOMY","HLT_0202","HLGT_0199","HISTORICAL DIAGNOSIS","SURGICAL AND MEDICAL PROCEDURES",null,"SCREENING 1","24-JUN-2014","1946"],[75,"CDISCPILOT01","701","1034","","VERBATIM_1775","APPENDICECTOMY","APPENDECTOMY","HLT_0707","HLGT_0363","HISTORICAL DIAGNOSIS","SURGICAL AND MEDICAL PROCEDURES",null,"SCREENING 1","24-JUN-2014","1949"],[76,"CDISCPILOT01","701","1034","E01","VERBATIM_1385","ABDOMINAL PAIN","ABDOMINAL PAIN","HLT_0217","HLGT_0419","SIGNIFICANT PRE-EXISTING CONDITION","GASTROINTESTINAL DISORDERS",1,"SCREENING 1","24-JUN-2014",""],[77,"CDISCPILOT01","701","1034","E02","VERBATIM_0443","CONSTIPATION","CONSTIPATION","HLT_0402","HLGT_0635","SIGNIFICANT PRE-EXISTING CONDITION","GASTROINTESTINAL DISORDERS",1,"SCREENING 1","24-JUN-2014",""],[78,"CDISCPILOT01","701","1034","E03","VERBATIM_0692","HYPOTHYROIDISM","HYPOTHYROIDISM","HLT_0454","HLGT_0558","SIGNIFICANT PRE-EXISTING CONDITION","ENDOCRINE DISORDERS",1,"SCREENING 1","24-JUN-2014",""],[79,"CDISCPILOT01","701","1034","E04","VERBATIM_0763","ARTHRITIS","ARTHRITIS","HLT_0019","HLGT_0587","SIGNIFICANT PRE-EXISTING CONDITION","MUSCULOSKELETAL AND CONNECTIVE TISSUE DISORDERS",1,"SCREENING 1","24-JUN-2014",""],[80,"CDISCPILOT01","701","1034","E05","VERBATIM_1683","HYPERMETROPIA","HYPEROPIA","HLT_0546","HLGT_0646","SIGNIFICANT PRE-EXISTING CONDITION","EYE DISORDERS",1,"SCREENING 1","24-JUN-2014",""],[81,"CDISCPILOT01","701","1034","E06","VERBATIM_0753","ARTHRITIS","ARTHRITIS","HLT_0019","HLGT_0587","SIGNIFICANT PRE-EXISTING CONDITION","MUSCULOSKELETAL AND CONNECTIVE TISSUE DISORDERS",1,"SCREENING 1","24-JUN-2014",""],[82,"CDISCPILOT01","701","1047","","ALZHEIMER'S DISEASE","","","","","PRIMARY DIAGNOSIS","",null,"SCREENING 1","22-JAN-2013","26-JUL-2009"],[83,"CDISCPILOT01","701","1047","","VERBATIM_0361","CYSTITIS","BLADDER INFECTION","HLT_0739","HLGT_0129","HISTORICAL DIAGNOSIS","INFECTIONS AND INFESTATIONS",null,"SCREENING 1","22-JAN-2013","2012"],[84,"CDISCPILOT01","701","1047","","VERBATIM_0514","CATARACT OPERATION","CATARACT OPERATION","HLT_0432","HLGT_0058","HISTORICAL DIAGNOSIS","SURGICAL AND MEDICAL PROCEDURES",null,"SCREENING 1","22-JAN-2013","2009"],[85,"CDISCPILOT01","701","1047","","VERBATIM_0675","CATARACT OPERATION","CATARACT OPERATION","HLT_0432","HLGT_0058","HISTORICAL DIAGNOSIS","SURGICAL AND MEDICAL PROCEDURES",null,"SCREENING 1","22-JAN-2013","2012"],[86,"CDISCPILOT01","701","1047","","VERBATIM_0936","HYSTERECTOMY","HYSTERECTOMY","HLT_0675","HLGT_0657","HISTORICAL DIAGNOSIS","SURGICAL AND MEDICAL PROCEDURES",null,"SCREENING 1","22-JAN-2013","1967"],[87,"CDISCPILOT01","701","1047","","VERBATIM_1041","ULCER","ULCER","HLT_0040","HLGT_0245","HISTORICAL DIAGNOSIS","GENERAL DISORDERS AND ADMINISTRATION SITE CONDITIONS",null,"SCREENING 1","22-JAN-2013","1971"],[88,"CDISCPILOT01","701","1047","","VERBATIM_1324","CHOLECYSTECTOMY","CHOLECYSTECTOMY","HLT_0149","HLGT_0074","HISTORICAL DIAGNOSIS","SURGICAL AND MEDICAL PROCEDURES",null,"SCREENING 1","22-JAN-2013","1987"],[89,"CDISCPILOT01","701","1047","","VERBATIM_1684","HAEMORRHOIDS","HEMORRHOIDS","HLT_0681","HLGT_0485","HISTORICAL DIAGNOSIS","GASTROINTESTINAL DISORDERS",null,"SCREENING 1","22-JAN-2013","2009"],[90,"CDISCPILOT01","701","1047","","VERBATIM_1716","TONSILLECTOMY","TONSILLECTOMY","HLT_0202","HLGT_0199","HISTORICAL DIAGNOSIS","SURGICAL AND MEDICAL PROCEDURES",null,"SCREENING 1","22-JAN-2013","1937"],[91,"CDISCPILOT01","701","1047","E01","VERBATIM_0699","HIATUS HERNIA","HIATAL HERNIA","HLT_0159","HLGT_0109","SIGNIFICANT PRE-EXISTING CONDITION","GASTROINTESTINAL DISORDERS",1,"SCREENING 1","22-JAN-2013",""],[92,"CDISCPILOT01","701","1047","E02","VERBATIM_1512","HYPOTHYROIDISM","HYPOTHYROIDISM","HLT_0454","HLGT_0558","SIGNIFICANT PRE-EXISTING CONDITION","ENDOCRINE DISORDERS",1,"SCREENING 1","22-JAN-2013",""],[93,"CDISCPILOT01","701","1047","E03","VERBATIM_0253","PSORIASIS","PSORIASIS","HLT_0740","HLGT_0038","SIGNIFICANT PRE-EXISTING CONDITION","SKIN AND SUBCUTANEOUS TISSUE DISORDERS",1,"SCREENING 1","22-JAN-2013",""],[94,"CDISCPILOT01","701","1047","E04","VERBATIM_1245","ARTHRITIS","ARTHRITIS","HLT_0019","HLGT_0587","SIGNIFICANT PRE-EXISTING CONDITION","MUSCULOSKELETAL AND CONNECTIVE TISSUE DISORDERS",1,"SCREENING 1","22-JAN-2013",""],[95,"CDISCPILOT01","701","1047","E05","VERBATIM_1769","SINUSITIS","SINUSITIS","HLT_0262","HLGT_0249","SIGNIFICANT PRE-EXISTING CONDITION","INFECTIONS AND INFESTATIONS",1,"SCREENING 1","22-JAN-2013",""],[96,"CDISCPILOT01","701","1047","E07","VERBATIM_0538","HYPOAESTHESIA","NUMBNESS IN HAND","HLT_0014","HLGT_0528","SIGNIFICANT PRE-EXISTING CONDITION","NERVOUS SYSTEM DISORDERS",1,"SCREENING 1","22-JAN-2013",""],[97,"CDISCPILOT01","701","1047","E10","VERBATIM_0918","OEDEMA PERIPHERAL","EDEMATOUS FEET","HLT_0661","HLGT_0137","SIGNIFICANT PRE-EXISTING CONDITION","GENERAL DISORDERS AND ADMINISTRATION SITE CONDITIONS",1,"SCREENING 1","22-JAN-2013",""],[98,"CDISCPILOT01","701","1097","","ALZHEIMER'S DISEASE","","","","","PRIMARY DIAGNOSIS","",null,"SCREENING 1","23-DEC-2013","22-SEP-2005"],[99,"CDISCPILOT01","701","1097","","VERBATIM_0663","GINGIVITIS","GINGIVITIS","HLT_0093","HLGT_0685","HISTORICAL DIAGNOSIS","GASTROINTESTINAL DISORDERS",null,"SCREENING 1","23-DEC-2013","APR-2013"],[100,"CDISCPILOT01","701","1097","","VERBATIM_0935","GINGIVAL OPERATION","GINGIVAL OPERATION","HLT_0004","HLGT_0266","HISTORICAL DIAGNOSIS","SURGICAL AND MEDICAL PROCEDURES",null,"SCREENING 1","23-DEC-2013","APR-2013"],[101,"CDISCPILOT01","701","1097","E01","VERBATIM_0662","MONARTHRITIS","GONARTHRITIS","HLT_0592","HLGT_0196","SIGNIFICANT PRE-EXISTING CONDITION","MUSCULOSKELETAL AND CONNECTIVE TISSUE DISORDERS",1,"SCREENING 1","23-DEC-2013",""],[102,"CDISCPILOT01","701","1097","E02","VERBATIM_0507","PRESBYOPIA","PRESBYOPIA","HLT_0230","HLGT_0759","SIGNIFICANT PRE-EXISTING CONDITION","EYE DISORDERS",1,"SCREENING 1","23-DEC-2013",""],[103,"CDISCPILOT01","701","1097","E03","VERBATIM_1769","SINUSITIS","SINUSITIS","HLT_0262","HLGT_0249","SIGNIFICANT PRE-EXISTING CONDITION","INFECTIONS AND INFESTATIONS",1,"SCREENING 1","23-DEC-2013",""],[104,"CDISCPILOT01","701","1111","","ALZHEIMER'S DISEASE","","","","","PRIMARY DIAGNOSIS","",null,"SCREENING 1","25-AUG-2012","04-APR-2009"],[105,"CDISCPILOT01","701","1111","","VERBATIM_0063","WRIST FRACTURE","WRIST FRACTURE","HLT_0537","HLGT_0281","HISTORICAL DIAGNOSIS","INJURY, POISONING AND PROCEDURAL COMPLICATIONS",null,"SCREENING 1","25-AUG-2012","1986"],[106,"CDISCPILOT01","701","1111","","VERBATIM_0250","RECTAL HAEMORRHAGE","RECTAL BLEEDING","HLT_0353","HLGT_0755","HISTORICAL DIAGNOSIS","GASTROINTESTINAL DISORDERS",null,"SCREENING 1","25-AUG-2012","1981"],[107,"CDISCPILOT01","701","1111","","VERBATIM_0267","HAEMORRHOIDS","HEMORRHOIDS","HLT_0681","HLGT_0485","HISTORICAL DIAGNOSIS","GASTROINTESTINAL DISORDERS",null,"SCREENING 1","25-AUG-2012","1981"],[108,"CDISCPILOT01","701","1111","","VERBATIM_0361","CYSTITIS","BLADDER INFECTION","HLT_0739","HLGT_0129","HISTORICAL DIAGNOSIS","INFECTIONS AND INFESTATIONS",null,"SCREENING 1","25-AUG-2012","2002"],[109,"CDISCPILOT01","701","1111","","VERBATIM_0526","TUBERCULOSIS","TUBERCULOSIS","HLT_0344","HLGT_0774","HISTORICAL DIAGNOSIS","INFECTIONS AND INFESTATIONS",null,"SCREENING 1","25-AUG-2012","1952"],[110,"CDISCPILOT01","701","1111","","VERBATIM_0543","MACULAR DEGENERATION","DEGENERATION MACULAR","HLT_0401","HLGT_0370","HISTORICAL DIAGNOSIS","EYE DISORDERS",null,"SCREENING 1","25-AUG-2012","2012"],[111,"CDISCPILOT01","701","1111","","VERBATIM_0702","EATING DISORDER","EATING DISORDER","HLT_0538","HLGT_0235","HISTORICAL DIAGNOSIS","PSYCHIATRIC DISORDERS",null,"SCREENING 1","25-AUG-2012","2009"],[112,"CDISCPILOT01","701","1111","","VERBATIM_0740","FOOT FRACTURE","FOOT FRACTURE","HLT_0768","HLGT_0287","HISTORICAL DIAGNOSIS","INJURY, POISONING AND PROCEDURAL COMPLICATIONS",null,"SCREENING 1","25-AUG-2012","1986"],[113,"CDISCPILOT01","701","1111","","VERBATIM_0846","ACROCHORDON","SKIN TAGS","HLT_0622","HLGT_0452","HISTORICAL DIAGNOSIS","NEOPLASMS BENIGN, MALIGNANT AND UNSPECIFIED (INCL CYSTS AND POLYPS)",null,"SCREENING 1","25-AUG-2012","2006"],[114,"CDISCPILOT01","701","1111","","VERBATIM_0910","COUGH","COUGH","HLT_0701","HLGT_0280","HISTORICAL DIAGNOSIS","RESPIRATORY, THORACIC AND MEDIASTINAL DISORDERS",null,"SCREENING 1","25-AUG-2012","2002"],[115,"CDISCPILOT01","701","1111","","VERBATIM_0951","BASAL CELL CARCINOMA","BASAL CELL CARCINOMA","HLT_0332","HLGT_0328","HISTORICAL DIAGNOSIS","NEOPLASMS BENIGN, MALIGNANT AND UNSPECIFIED (INCL CYSTS AND POLYPS)",null,"SCREENING 1","25-AUG-2012","2007"],[116,"CDISCPILOT01","701","1111","","VERBATIM_1261","LOWER LIMB FRACTURE","KNEE FRACTURE","HLT_0348","HLGT_0435","HISTORICAL DIAGNOSIS","INJURY, POISONING AND PROCEDURAL COMPLICATIONS",null,"SCREENING 1","25-AUG-2012","1986"],[117,"CDISCPILOT01","701","1111","","VERBATIM_1378","UPPER LIMB FRACTURE","ELBOW FRACTURE","HLT_0472","HLGT_0247","HISTORICAL DIAGNOSIS","INJURY, POISONING AND PROCEDURAL COMPLICATIONS",null,"SCREENING 1","25-AUG-2012","1986"],[118,"CDISCPILOT01","701","1111","","VERBATIM_1407","RIB FRACTURE","FRACTURED RIBS","HLT_0292","HLGT_0583","HISTORICAL DIAGNOSIS","INJURY, POISONING AND PROCEDURAL COMPLICATIONS",null,"SCREENING 1","25-AUG-2012","1986"],[119,"CDISCPILOT01","701","1111","","VERBATIM_1545","INCONTINENCE","INCONTINENCE","HLT_0560","HLGT_0503","HISTORICAL DIAGNOSIS","RENAL AND URINARY DISORDERS",null,"SCREENING 1","25-AUG-2012","2006"],[120,"CDISCPILOT01","701","1111","","VERBATIM_1775","APPENDICECTOMY","APPENDECTOMY","HLT_0707","HLGT_0363","HISTORICAL DIAGNOSIS","SURGICAL AND MEDICAL PROCEDURES",null,"SCREENING 1","25-AUG-2012","1946"],[121,"CDISCPILOT01","701","1111","E01","VERBATIM_1641","HYPERTENSION","HYPERTENSION","HLT_0228","HLGT_0476","SIGNIFICANT PRE-EXISTING CONDITION","VASCULAR DISORDERS",1,"SCREENING 1","25-AUG-2012",""],[122,"CDISCPILOT01","701","1111","E02","VERBATIM_1589","VARICOSE VEIN","VARICOSE VEINS","HLT_0372","HLGT_0037","SIGNIFICANT PRE-EXISTING CONDITION","VASCULAR DISORDERS",1,"SCREENING 1","25-AUG-2012",""],[123,"CDISCPILOT01","701","1111","E03","VERBATIM_0835","OEDEMA PERIPHERAL","ANKLE EDEMA","HLT_0661","HLGT_0137","SIGNIFICANT PRE-EXISTING CONDITION","GENERAL DISORDERS AND ADMINISTRATION SITE CONDITIONS",1,"SCREENING 1","25-AUG-2012",""],[124,"CDISCPILOT01","701","1111","E04","VERBATIM_0699","HIATUS HERNIA","HIATAL HERNIA","HLT_0159","HLGT_0109","SIGNIFICANT PRE-EXISTING CONDITION","GASTROINTESTINAL DISORDERS",1,"SCREENING 1","25-AUG-2012",""],[125,"CDISCPILOT01","701","1111","E05","VERBATIM_1512","HYPOTHYROIDISM","HYPOTHYROIDISM","HLT_0454","HLGT_0558","SIGNIFICANT PRE-EXISTING CONDITION","ENDOCRINE DISORDERS",1,"SCREENING 1","25-AUG-2012",""],[126,"CDISCPILOT01","701","1111","E06","VERBATIM_1224","LOCALISED INFECTION","LOCALIZED INFECTION","HLT_0435","HLGT_0557","SIGNIFICANT PRE-EXISTING CONDITION","INFECTIONS AND INFESTATIONS",1,"SCREENING 1","25-AUG-2012",""],[127,"CDISCPILOT01","701","1111","E07","VERBATIM_1309","ARTHRITIS","ARTHRITIS","HLT_0019","HLGT_0587","SIGNIFICANT PRE-EXISTING CONDITION","MUSCULOSKELETAL AND CONNECTIVE TISSUE DISORDERS",1,"SCREENING 1","25-AUG-2012",""],[128,"CDISCPILOT01","701","1111","E08","VERBATIM_1583","BACK PAIN","BACK PAIN","HLT_0115","HLGT_0508","SIGNIFICANT PRE-EXISTING CONDITION","MUSCULOSKELETAL AND CONNECTIVE TISSUE DISORDERS",1,"SCREENING 1","25-AUG-2012",""],[129,"CDISCPILOT01","701","1111","E09","VERBATIM_1769","SINUSITIS","SINUSITIS","HLT_0262","HLGT_0249","SIGNIFICANT PRE-EXISTING CONDITION","INFECTIONS AND INFESTATIONS",1,"SCREENING 1","25-AUG-2012",""],[130,"CDISCPILOT01","701","1111","E10","VERBATIM_1384","CORRECTIVE LENS USER","EYEGLASSES WEARER","HLT_0776","HLGT_0407","SIGNIFICANT PRE-EXISTING CONDITION","SOCIAL CIRCUMSTANCES",1,"SCREENING 1","25-AUG-2012",""],[131,"CDISCPILOT01","701","1111","E11","VERBATIM_0546","DEAFNESS","HEARING LOSS","HLT_0234","HLGT_0025","SIGNIFICANT PRE-EXISTING CONDITION","EAR AND LABYRINTH DISORDERS",1,"SCREENING 1","25-AUG-2012",""],[132,"CDISCPILOT01","701","1111","E12","VERBATIM_1065","TINNITUS","TINNITUS","HLT_0570","HLGT_0180","SIGNIFICANT PRE-EXISTING CONDITION","EAR AND LABYRINTH DISORDERS",1,"SCREENING 1","25-AUG-2012",""],[133,"CDISCPILOT01","701","1111","E13","VERBATIM_1201","OSTEOPOROSIS","OSTEOPOROSIS","HLT_0381","HLGT_0634","SIGNIFICANT PRE-EXISTING CONDITION","MUSCULOSKELETAL AND CONNECTIVE TISSUE DISORDERS",1,"SCREENING 1","25-AUG-2012",""],[134,"CDISCPILOT01","701","1115","","ALZHEIMER'S DISEASE","","","","","PRIMARY DIAGNOSIS","",null,"SCREENING 1","23-NOV-2012","28-MAY-2004"],[135,"CDISCPILOT01","701","1115","","VERBATIM_0470","PELVIC FRACTURE","PELVIC FRACTURE","HLT_0017","HLGT_0237","HISTORICAL DIAGNOSIS","INJURY, POISONING AND PROCEDURAL COMPLICATIONS",null,"SCREENING 1","23-NOV-2012","1983"],[136,"CDISCPILOT01","701","1115","","VERBATIM_0714","HERPES ZOSTER","SHINGLES","HLT_0460","HLGT_0239","HISTORICAL DIAGNOSIS","INFECTIONS AND INFESTATIONS",null,"SCREENING 1","23-NOV-2012","1986"],[137,"CDISCPILOT01","701","1115","","VERBATIM_0739","NEPHROLITHIASIS","KIDNEY STONES","HLT_0439","HLGT_0546","HISTORICAL DIAGNOSIS","RENAL AND URINARY DISORDERS",null,"SCREENING 1","23-NOV-2012","1998"],[138,"CDISCPILOT01","701","1115","","VERBATIM_1509","DYSPNOEA","SHORTNESS OF BREATH","HLT_0296","HLGT_0255","HISTORICAL DIAGNOSIS","RESPIRATORY, THORACIC AND MEDIASTINAL DISORDERS",null,"SCREENING 1","23-NOV-2012","2011"],[139,"CDISCPILOT01","701","1115","","VERBATIM_1533","DIZZINESS","DIZZINESS","HLT_0619","HLGT_0751","HISTORICAL DIAGNOSIS","NERVOUS SYSTEM DISORDERS",null,"SCREENING 1","23-NOV-2012","2011"],[140,"CDISCPILOT01","701","1115","","VERBATIM_1716","TONSILLECTOMY","TONSILLECTOMY","HLT_0202","HLGT_0199","HISTORICAL DIAGNOSIS","SURGICAL AND MEDICAL PROCEDURES",null,"SCREENING 1","23-NOV-2012","1934"],[141,"CDISCPILOT01","701","1115","E01","VERBATIM_0443","CONSTIPATION","CONSTIPATION","HLT_0402","HLGT_0635","SIGNIFICANT PRE-EXISTING CONDITION","GASTROINTESTINAL DISORDERS",1,"SCREENING 1","23-NOV-2012",""],[142,"CDISCPILOT01","701","1115","E02","VERBATIM_1350","PROSTATITIS","PROSTATITIS","HLT_0749","HLGT_0104","SIGNIFICANT PRE-EXISTING CONDITION","REPRODUCTIVE SYSTEM AND BREAST DISORDERS",1,"SCREENING 1","23-NOV-2012",""],[143,"CDISCPILOT01","701","1115","E03","VERBATIM_1546","POLYARTHRITIS","POLYARTHRITIS","HLT_0134","HLGT_0167","SIGNIFICANT PRE-EXISTING CONDITION","MUSCULOSKELETAL AND CONNECTIVE TISSUE DISORDERS",1,"SCREENING 1","23-NOV-2012",""],[144,"CDISCPILOT01","701","1115","E04","VERBATIM_1749","HYPERMETROPIA","HYPEROPIA","HLT_0546","HLGT_0646","SIGNIFICANT PRE-EXISTING CONDITION","EYE DISORDERS",1,"SCREENING 1","23-NOV-2012",""],[145,"CDISCPILOT01","701","1115","E05","VERBATIM_0773","DENTURE WEARER","DENTURE WEARER","HLT_0246","HLGT_0763","SIGNIFICANT PRE-EXISTING CONDITION","SOCIAL CIRCUMSTANCES",1,"SCREENING 1","23-NOV-2012",""],[146,"CDISCPILOT01","701","1115","E06","VERBATIM_0014","NOCTURIA","NOCTURIA","HLT_0509","HLGT_0605","SIGNIFICANT PRE-EXISTING CONDITION","RENAL AND URINARY DISORDERS",1,"SCREENING 1","23-NOV-2012",""],[147,"CDISCPILOT01","701","1115","E07","VERBATIM_1179","MICTURITION URGENCY","URINARY URGENCY","HLT_0294","HLGT_0483","SIGNIFICANT PRE-EXISTING CONDITION","RENAL AND URINARY DISORDERS",1,"SCREENING 1","23-NOV-2012",""],[148,"CDISCPILOT01","701","1115","E08","VERBATIM_0261","POLYARTHRITIS","POLYARTHRITIS","HLT_0134","HLGT_0167","SIGNIFICANT PRE-EXISTING CONDITION","MUSCULOSKELETAL AND CONNECTIVE TISSUE DISORDERS",1,"SCREENING 1","23-NOV-2012",""],[149,"CDISCPILOT01","701","1118","","ALZHEIMER'S DISEASE","","","","","PRIMARY DIAGNOSIS","",null,"SCREENING 1","27-FEB-2014","24-JUN-2010"],[150,"CDISCPILOT01","701","1118","","VERBATIM_1371","WRIST FRACTURE","WRIST FRACTURE","HLT_0537","HLGT_0281","HISTORICAL DIAGNOSIS","INJURY, POISONING AND PROCEDURAL COMPLICATIONS",null,"SCREENING 1","27-FEB-2014","1991"],[151,"CDISCPILOT01","701","1118","","VERBATIM_1514","PNEUMOTHORAX","PNEUMOTHORAX","HLT_0580","HLGT_0057","HISTORICAL DIAGNOSIS","RESPIRATORY, THORACIC AND MEDIASTINAL DISORDERS",null,"SCREENING 1","27-FEB-2014","1988"],[152,"CDISCPILOT01","701","1118","E01","VERBATIM_0800","DYSPEPSIA","INDIGESTION","HLT_0244","HLGT_0716","SIGNIFICANT PRE-EXISTING CONDITION","GASTROINTESTINAL DISORDERS",1,"SCREENING 1","27-FEB-2014",""],[153,"CDISCPILOT01","701","1118","E02","VERBATIM_0267","HAEMORRHOIDS","HEMORRHOIDS","HLT_0681","HLGT_0485","SIGNIFICANT PRE-EXISTING CONDITION","GASTROINTESTINAL DISORDERS",1,"SCREENING 1","27-FEB-2014",""],[154,"CDISCPILOT01","701","1118","E03","VERBATIM_0301","HEADACHE","HEADACHE","HLT_0064","HLGT_0344","SIGNIFICANT PRE-EXISTING CONDITION","NERVOUS SYSTEM DISORDERS",2,"SCREENING 1","27-FEB-2014",""],[155,"CDISCPILOT01","701","1118","E04","VERBATIM_1769","SINUSITIS","SINUSITIS","HLT_0262","HLGT_0249","SIGNIFICANT PRE-EXISTING CONDITION","INFECTIONS AND INFESTATIONS",1,"SCREENING 1","27-FEB-2014",""],[156,"CDISCPILOT01","701","1118","E05","VERBATIM_1683","HYPERMETROPIA","HYPEROPIA","HLT_0546","HLGT_0646","SIGNIFICANT PRE-EXISTING CONDITION","EYE DISORDERS",1,"SCREENING 1","27-FEB-2014",""],[157,"CDISCPILOT01","701","1130","","ALZHEIMER'S DISEASE","","","","","PRIMARY DIAGNOSIS","",null,"SCREENING 1","09-FEB-2014","22-MAY-2010"],[158,"CDISCPILOT01","701","1130","","VERBATIM_0055","PROSTATECTOMY","PROSTATECTOMY","HLT_0532","HLGT_0559","HISTORICAL DIAGNOSIS","SURGICAL AND MEDICAL PROCEDURES",null,"SCREENING 1","09-FEB-2014","2000"],[159,"CDISCPILOT01","701","1130","","VERBATIM_0154","PROSTATE CANCER","PROSTATE CANCER","HLT_0412","HLGT_0190","HISTORICAL DIAGNOSIS","NEOPLASMS BENIGN, MALIGNANT AND UNSPECIFIED (INCL CYSTS AND POLYPS)",null,"SCREENING 1","09-FEB-2014","2000"],[160,"CDISCPILOT01","701","1130","","VERBATIM_0267","HAEMORRHOIDS","HEMORRHOIDS","HLT_0681","HLGT_0485","HISTORICAL DIAGNOSIS","GASTROINTESTINAL DISORDERS",null,"SCREENING 1","09-FEB-2014","1987"],[161,"CDISCPILOT01","701","1130","","VERBATIM_0329","FEMUR FRACTURE","FEMUR FRACTURE","HLT_0349","HLGT_0542","HISTORICAL DIAGNOSIS","INJURY, POISONING AND PROCEDURAL COMPLICATIONS",null,"SCREENING 1","09-FEB-2014","1977"],[162,"CDISCPILOT01","701","1130","","VERBATIM_0448","OTITIS EXTERNA","OTITIS EXTERNA","HLT_0673","HLGT_0404","HISTORICAL DIAGNOSIS","INFECTIONS AND INFESTATIONS",null,"SCREENING 1","09-FEB-2014","OCT-2012"],[163,"CDISCPILOT01","701","1130","","VERBATIM_0463","SKIN LACERATION","LACERATION OF ARM","HLT_0075","HLGT_0118","HISTORICAL DIAGNOSIS","INJURY, POISONING AND PROCEDURAL COMPLICATIONS",null,"SCREENING 1","09-FEB-2014","15-JAN-2014"],[164,"CDISCPILOT01","701","1130","","VERBATIM_0919","PNEUMONIA","PNEUMONIA","HLT_0251","HLGT_0671","HISTORICAL DIAGNOSIS","INFECTIONS AND INFESTATIONS",null,"SCREENING 1","09-FEB-2014","1984"],[165,"CDISCPILOT01","701","1130","","VERBATIM_0919","PNEUMONIA","PNEUMONIA","HLT_0251","HLGT_0671","HISTORICAL DIAGNOSIS","INFECTIONS AND INFESTATIONS",null,"SCREENING 1","09-FEB-2014","1989"],[166,"CDISCPILOT01","701","1130","","VERBATIM_1716","TONSILLECTOMY","TONSILLECTOMY","HLT_0202","HLGT_0199","HISTORICAL DIAGNOSIS","SURGICAL AND MEDICAL PROCEDURES",null,"SCREENING 1","09-FEB-2014","1939"],[167,"CDISCPILOT01","701","1130","E01","VERBATIM_1446","PARAESTHESIA","TINGLING","HLT_0481","HLGT_0534","SIGNIFICANT PRE-EXISTING CONDITION","NERVOUS SYSTEM DISORDERS",1,"SCREENING 1","09-FEB-2014",""],[168,"CDISCPILOT01","701","1130","E02","VERBATIM_1454","DRY SKIN","DRY SKIN","HLT_0028","HLGT_0096","SIGNIFICANT PRE-EXISTING CONDITION","SKIN AND SUBCUTANEOUS TISSUE DISORDERS",1,"SCREENING 1","09-FEB-2014",""],[169,"CDISCPILOT01","701","1130","E03","VERBATIM_0025","DEAFNESS UNILATERAL","HEARING LOSS UNILATERAL","HLT_0521","HLGT_0683","SIGNIFICANT PRE-EXISTING CONDITION","EAR AND LABYRINTH DISORDERS",1,"SCREENING 1","09-FEB-2014",""],[170,"CDISCPILOT01","701","1130","E04","VERBATIM_0773","DENTURE WEARER","DENTURE WEARER","HLT_0246","HLGT_0763","SIGNIFICANT PRE-EXISTING CONDITION","SOCIAL CIRCUMSTANCES",1,"SCREENING 1","09-FEB-2014",""],[171,"CDISCPILOT01","701","1130","E05","VERBATIM_1751","ASTIGMATISM","ASTIGMATISM","HLT_0494","HLGT_0369","SIGNIFICANT PRE-EXISTING CONDITION","EYE DISORDERS",1,"SCREENING 1","09-FEB-2014",""],[172,"CDISCPILOT01","701","1133","","ALZHEIMER'S DISEASE","","","","","PRIMARY DIAGNOSIS","",null,"SCREENING 1","23-OCT-2012","11-MAR-2010"],[173,"CDISCPILOT01","701","1133","","VERBATIM_0009","KNEE ARTHROPLASTY","KNEE TOTAL REPLACEMENT","HLT_0710","HLGT_0078","HISTORICAL DIAGNOSIS","SURGICAL AND MEDICAL PROCEDURES",null,"SCREENING 1","23-OCT-2012","DEC-2009"],[174,"CDISCPILOT01","701","1133","","VERBATIM_0267","HAEMORRHOIDS","HEMORRHOIDS","HLT_0681","HLGT_0485","HISTORICAL DIAGNOSIS","GASTROINTESTINAL DISORDERS",null,"SCREENING 1","23-OCT-2012","2003"],[175,"CDISCPILOT01","701","1133","","VERBATIM_0293","WEIGHT DECREASED","WEIGHT LOSS","HLT_0158","HLGT_0778","HISTORICAL DIAGNOSIS","INVESTIGATIONS",null,"SCREENING 1","23-OCT-2012","1966"],[176,"CDISCPILOT01","701","1133","","VERBATIM_0342","HYPERTENSION","HYPERTENSION","HLT_0228","HLGT_0476","HISTORICAL DIAGNOSIS","VASCULAR DISORDERS",null,"SCREENING 1","23-OCT-2012","1986"],[177,"CDISCPILOT01","701","1133","","VERBATIM_0517","CHEST PAIN","CHEST PAIN","HLT_0717","HLGT_0195","HISTORICAL DIAGNOSIS","GENERAL DISORDERS AND ADMINISTRATION SITE CONDITIONS",null,"SCREENING 1","23-OCT-2012","1986"],[178,"CDISCPILOT01","701","1133","","VERBATIM_1023","DIVERTICULUM","DIVERTICULOSIS","HLT_0069","HLGT_0141","HISTORICAL DIAGNOSIS","GASTROINTESTINAL DISORDERS",null,"SCREENING 1","23-OCT-2012","2000"],[179,"CDISCPILOT01","701","1133","","VERBATIM_1716","TONSILLECTOMY","TONSILLECTOMY","HLT_0202","HLGT_0199","HISTORICAL DIAGNOSIS","SURGICAL AND MEDICAL PROCEDURES",null,"SCREENING 1","23-OCT-2012","1939"],[180,"CDISCPILOT01","701","1133","E01","VERBATIM_1121","POLYARTHRITIS","POLYARTHRITIS","HLT_0134","HLGT_0167","SIGNIFICANT PRE-EXISTING CONDITION","MUSCULOSKELETAL AND CONNECTIVE TISSUE DISORDERS",1,"SCREENING 1","23-OCT-2012",""],[181,"CDISCPILOT01","701","1133","E02","VERBATIM_1683","HYPERMETROPIA","HYPEROPIA","HLT_0546","HLGT_0646","SIGNIFICANT PRE-EXISTING CONDITION","EYE DISORDERS",1,"SCREENING 1","23-OCT-2012",""],[182,"CDISCPILOT01","701","1133","E03","VERBATIM_1796","DENTURE WEARER","DENTURE WEARER","HLT_0246","HLGT_0763","SIGNIFICANT PRE-EXISTING CONDITION","SOCIAL CIRCUMSTANCES",1,"SCREENING 1","23-OCT-2012",""],[183,"CDISCPILOT01","701","1146","","ALZHEIMER'S DISEASE","","","","","PRIMARY DIAGNOSIS","",null,"SCREENING 1","07-MAY-2013","17-NOV-2009"],[184,"CDISCPILOT01","701","1146","","VERBATIM_0361","CYSTITIS","BLADDER INFECTION","HLT_0739","HLGT_0129","HISTORICAL DIAGNOSIS","INFECTIONS AND INFESTATIONS",null,"SCREENING 1","07-MAY-2013","27-OCT-2012"],[185,"CDISCPILOT01","701","1146","","VERBATIM_0517","CHEST PAIN","CHEST PAIN","HLT_0717","HLGT_0195","HISTORICAL DIAGNOSIS","GENERAL DISORDERS AND ADMINISTRATION SITE CONDITIONS",null,"SCREENING 1","07-MAY-2013","27-MAR-2012"],[186,"CDISCPILOT01","701","1146","","VERBATIM_0815","BLADDER PROLAPSE","BLADDER PROLAPSE","HLT_0502","HLGT_0048","HISTORICAL DIAGNOSIS","RENAL AND URINARY DISORDERS",null,"SCREENING 1","07-MAY-2013","2006"],[187,"CDISCPILOT01","701","1146","","VERBATIM_0815","BLADDER PROLAPSE","BLADDER PROLAPSE","HLT_0502","HLGT_0048","HISTORICAL DIAGNOSIS","RENAL AND URINARY DISORDERS",null,"SCREENING 1","07-MAY-2013","2012"],[188,"CDISCPILOT01","701","1146","","VERBATIM_0821","ABDOMINAL DISCOMFORT","ABDOMINAL DISCOMFORT","HLT_0012","HLGT_0332","HISTORICAL DIAGNOSIS","GASTROINTESTINAL DISORDERS",null,"SCREENING 1","07-MAY-2013","06-JUL-2012"],[189,"CDISCPILOT01","701","1146","","VERBATIM_1066","ENDODONTIC PROCEDURE","ROOT CANAL PROCEDURE","HLT_0153","HLGT_0539","HISTORICAL DIAGNOSIS","SURGICAL AND MEDICAL PROCEDURES",null,"SCREENING 1","07-MAY-2013","12-SEP-2012"],[190,"CDISCPILOT01","701","1146","","VERBATIM_1117","OESOPHAGEAL SPASM","ESOPHAGEAL SPASM","HLT_0112","HLGT_0697","HISTORICAL DIAGNOSIS","GASTROINTESTINAL DISORDERS",null,"SCREENING 1","07-MAY-2013","2011"],[191,"CDISCPILOT01","701","1146","","VERBATIM_1716","TONSILLECTOMY","TONSILLECTOMY","HLT_0202","HLGT_0199","HISTORICAL DIAGNOSIS","SURGICAL AND MEDICAL PROCEDURES",null,"SCREENING 1","07-MAY-2013","1942"],[192,"CDISCPILOT01","701","1146","E01","VERBATIM_0443","CONSTIPATION","CONSTIPATION","HLT_0402","HLGT_0635","SIGNIFICANT PRE-EXISTING CONDITION","GASTROINTESTINAL DISORDERS",1,"SCREENING 1","07-MAY-2013",""],[193,"CDISCPILOT01","701","1146","E02","VERBATIM_0325","POLYARTHRITIS","POLYARTHRITIS","HLT_0134","HLGT_0167","SIGNIFICANT PRE-EXISTING CONDITION","MUSCULOSKELETAL AND CONNECTIVE TISSUE DISORDERS",1,"SCREENING 1","07-MAY-2013",""],[194,"CDISCPILOT01","701","1146","E03","VERBATIM_1441","ARTHRALGIA","KNEE PAIN","HLT_0375","HLGT_0610","SIGNIFICANT PRE-EXISTING CONDITION","MUSCULOSKELETAL AND CONNECTIVE TISSUE DISORDERS",1,"SCREENING 1","07-MAY-2013",""],[195,"CDISCPILOT01","701","1146","E04","VERBATIM_1769","SINUSITIS","SINUSITIS","HLT_0262","HLGT_0249","SIGNIFICANT PRE-EXISTING CONDITION","INFECTIONS AND INFESTATIONS",1,"SCREENING 1","07-MAY-2013",""],[196,"CDISCPILOT01","701","1146","E05","VERBATIM_0391","DEAFNESS","HEARING LOSS","HLT_0234","HLGT_0025","SIGNIFICANT PRE-EXISTING CONDITION","EAR AND LABYRINTH DISORDERS",1,"SCREENING 1","07-MAY-2013",""],[197,"CDISCPILOT01","701","1146","E06","VERBATIM_1376","DEPRESSION","DEPRESSION","HLT_0167","HLGT_0582","SIGNIFICANT PRE-EXISTING CONDITION","PSYCHIATRIC DISORDERS",1,"SCREENING 1","07-MAY-2013",""],[198,"CDISCPILOT01","701","1146","E07","VERBATIM_1126","DIARRHOEA","DIARRHEA","HLT_0148","HLGT_0588","SIGNIFICANT PRE-EXISTING CONDITION","GASTROINTESTINAL DISORDERS",1,"SCREENING 1","07-MAY-2013",""],[199,"CDISCPILOT01","701","1146","E08","VERBATIM_1223","CARDIAC MURMUR","HEART MURMUR","HLT_0085","HLGT_0133","SIGNIFICANT PRE-EXISTING CONDITION","INVESTIGATIONS",1,"SCREENING 1","07-MAY-2013",""],[200,"CDISCPILOT01","701","1148","","ALZHEIMER'S DISEASE","","","","","PRIMARY DIAGNOSIS","",null,"SCREENING 1","14-AUG-2013","12-DEC-2010"],[201,"CDISCPILOT01","701","1148","","VERBATIM_0036","THERMAL BURN","BURN","HLT_0092","HLGT_0447","HISTORICAL DIAGNOSIS","INJURY, POISONING AND PROCEDURAL COMPLICATIONS",null,"SCREENING 1","14-AUG-2013","1996"],[202,"CDISCPILOT01","701","1148","","VERBATIM_0146","ANKLE FRACTURE","ANKLE FRACTURE","HLT_0208","HLGT_0252","HISTORICAL DIAGNOSIS","INJURY, POISONING AND PROCEDURAL COMPLICATIONS",null,"SCREENING 1","14-AUG-2013","1985"],[203,"CDISCPILOT01","701","1148","","VERBATIM_0305","BREAST LUMP REMOVAL","BREAST LUMP REMOVAL","HLT_0100","HLGT_0742","HISTORICAL DIAGNOSIS","SURGICAL AND MEDICAL PROCEDURES",null,"SCREENING 1","14-AUG-2013","1991"],[204,"CDISCPILOT01","701","1148","","VERBATIM_0598","ANAL FISTULA","ANAL FISTULA","HLT_0653","HLGT_0268","HISTORICAL DIAGNOSIS","GASTROINTESTINAL DISORDERS",null,"SCREENING 1","14-AUG-2013","1989"],[205,"CDISCPILOT01","701","1148","","VERBATIM_0598","ANAL FISTULA","ANAL FISTULA","HLT_0653","HLGT_0268","HISTORICAL DIAGNOSIS","GASTROINTESTINAL DISORDERS",null,"SCREENING 1","14-AUG-2013","2007"],[206,"CDISCPILOT01","701","1148","","VERBATIM_0807","SINUS OPERATION","SINUS OPERATION","HLT_0259","HLGT_0573","HISTORICAL DIAGNOSIS","SURGICAL AND MEDICAL PROCEDURES",null,"SCREENING 1","14-AUG-2013","2010"],[207,"CDISCPILOT01","701","1148","","VERBATIM_1160","ACTINIC KERATOSIS","ACTINIC KERATOSIS","HLT_0609","HLGT_0490","HISTORICAL DIAGNOSIS","SKIN AND SUBCUTANEOUS TISSUE DISORDERS",null,"SCREENING 1","14-AUG-2013","2011"],[208,"CDISCPILOT01","701","1148","","VERBATIM_1550","SKIN GRAFT","SKIN GRAFT","HLT_0392","HLGT_0390","HISTORICAL DIAGNOSIS","SURGICAL AND MEDICAL PROCEDURES",null,"SCREENING 1","14-AUG-2013","1996"],[209,"CDISCPILOT01","701","1148","E01","VERBATIM_0266","PALPITATIONS","PALPITATIONS","HLT_0493","HLGT_0593","SIGNIFICANT PRE-EXISTING CONDITION","CARDIAC DISORDERS",1,"SCREENING 1","14-AUG-2013",""],[210,"CDISCPILOT01","701","1148","E02","VERBATIM_1509","DYSPNOEA","SHORTNESS OF BREATH","HLT_0296","HLGT_0255","SIGNIFICANT PRE-EXISTING CONDITION","RESPIRATORY, THORACIC AND MEDIASTINAL DISORDERS",1,"SCREENING 1","14-AUG-2013",""],[211,"CDISCPILOT01","701","1148","E03","VERBATIM_0800","DYSPEPSIA","INDIGESTION","HLT_0244","HLGT_0716","SIGNIFICANT PRE-EXISTING CONDITION","GASTROINTESTINAL DISORDERS",1,"SCREENING 1","14-AUG-2013",""],[212,"CDISCPILOT01","701","1148","E04","VERBATIM_0301","HEADACHE","HEADACHE","HLT_0064","HLGT_0344","SIGNIFICANT PRE-EXISTING CONDITION","NERVOUS SYSTEM DISORDERS",1,"SCREENING 1","14-AUG-2013",""],[213,"CDISCPILOT01","701","1148","E05","VERBATIM_1576","HYPOAESTHESIA","NUMBNESS OF UPPER ARM","HLT_0014","HLGT_0528","SIGNIFICANT PRE-EXISTING CONDITION","NERVOUS SYSTEM DISORDERS",1,"SCREENING 1","14-AUG-2013",""],[214,"CDISCPILOT01","701","1148","E06","VERBATIM_0617","HYPOAESTHESIA","NUMBNESS IN FINGERS","HLT_0014","HLGT_0528","SIGNIFICANT PRE-EXISTING CONDITION","NERVOUS SYSTEM DISORDERS",1,"SCREENING 1","14-AUG-2013",""],[215,"CDISCPILOT01","701","1148","E07","VERBATIM_0383","HYPOAESTHESIA","NUMBNESS IN SHOULDER","HLT_0014","HLGT_0528","SIGNIFICANT PRE-EXISTING CONDITION","NERVOUS SYSTEM DISORDERS",1,"SCREENING 1","14-AUG-2013",""],[216,"CDISCPILOT01","701","1148","E08","VERBATIM_1533","DIZZINESS","DIZZINESS","HLT_0619","HLGT_0751","SIGNIFICANT PRE-EXISTING CONDITION","NERVOUS SYSTEM DISORDERS",1,"SCREENING 1","14-AUG-2013",""],[217,"CDISCPILOT01","701","1148","E09","VERBATIM_1168","POLYARTHRITIS","POLYARTHRITIS","HLT_0134","HLGT_0167","SIGNIFICANT PRE-EXISTING CONDITION","MUSCULOSKELETAL AND CONNECTIVE TISSUE DISORDERS",1,"SCREENING 1","14-AUG-2013",""],[218,"CDISCPILOT01","701","1148","E10","VERBATIM_1583","BACK PAIN","BACK PAIN","HLT_0115","HLGT_0508","SIGNIFICANT PRE-EXISTING CONDITION","MUSCULOSKELETAL AND CONNECTIVE TISSUE DISORDERS",1,"SCREENING 1","14-AUG-2013",""],[219,"CDISCPILOT01","701","1148","E11","VERBATIM_0461","MYALGIA","MUSCULAR PAIN","HLT_0700","HLGT_0121","SIGNIFICANT PRE-EXISTING CONDITION","MUSCULOSKELETAL AND CONNECTIVE TISSUE DISORDERS",1,"SCREENING 1","14-AUG-2013",""],[220,"CDISCPILOT01","701","1148","E12","VERBATIM_1213","NEURALGIA","NERVE PAIN","HLT_0486","HLGT_0172","SIGNIFICANT PRE-EXISTING CONDITION","NERVOUS SYSTEM DISORDERS",1,"SCREENING 1","14-AUG-2013",""],[221,"CDISCPILOT01","701","1148","E13","VERBATIM_1769","SINUSITIS","SINUSITIS","HLT_0262","HLGT_0249","SIGNIFICANT PRE-EXISTING CONDITION","INFECTIONS AND INFESTATIONS",1,"SCREENING 1","14-AUG-2013",""],[222,"CDISCPILOT01","701","1148","E14","VERBATIM_0978","DEAFNESS BILATERAL","HEARING LOSS BILATERAL","HLT_0567","HLGT_0426","SIGNIFICANT PRE-EXISTING CONDITION","EAR AND LABYRINTH DISORDERS",1,"SCREENING 1","14-AUG-2013",""],[223,"CDISCPILOT01","701","1148","E15","VERBATIM_1073","MYALGIA","MUSCULAR PAIN","HLT_0700","HLGT_0121","SIGNIFICANT PRE-EXISTING CONDITION","MUSCULOSKELETAL AND CONNECTIVE TISSUE DISORDERS",1,"SCREENING 1","14-AUG-2013",""],[224,"CDISCPILOT01","701","1148","E16","VERBATIM_0453","NEURALGIA","NERVE PAIN","HLT_0486","HLGT_0172","SIGNIFICANT PRE-EXISTING CONDITION","NERVOUS SYSTEM DISORDERS",1,"SCREENING 1","14-AUG-2013",""],[225,"CDISCPILOT01","701","1148","E17","VERBATIM_0047","TINNITUS","TINNITUS","HLT_0570","HLGT_0180","SIGNIFICANT PRE-EXISTING CONDITION","EAR AND LABYRINTH DISORDERS",1,"SCREENING 1","14-AUG-2013",""],[226,"CDISCPILOT01","701","1148","E18","VERBATIM_1751","ASTIGMATISM","ASTIGMATISM","HLT_0494","HLGT_0369","SIGNIFICANT PRE-EXISTING CONDITION","EYE DISORDERS",1,"SCREENING 1","14-AUG-2013",""],[227,"CDISCPILOT01","701","1148","E19","VERBATIM_0982","DIZZINESS","FELT FAINT","HLT_0619","HLGT_0751","SIGNIFICANT PRE-EXISTING CONDITION","NERVOUS SYSTEM DISORDERS",1,"SCREENING 1","14-AUG-2013",""],[228,"CDISCPILOT01","701","1148","E22","VERBATIM_0396","SEASONAL ALLERGY","HAY FEVER","HLT_0714","HLGT_0782","SIGNIFICANT PRE-EXISTING CONDITION","IMMUNE SYSTEM DISORDERS",1,"SCREENING 1","14-AUG-2013",""],[229,"CDISCPILOT01","701","1148","E26","VERBATIM_0591","DEPRESSED MOOD","DEPRESSED MOOD","HLT_0784","HLGT_0122","SIGNIFICANT PRE-EXISTING CONDITION","PSYCHIATRIC DISORDERS",1,"SCREENING 1","14-AUG-2013",""],[230,"CDISCPILOT01","701","1153","","ALZHEIMER'S DISEASE","","","","","PRIMARY DIAGNOSIS","",null,"SCREENING 1","06-SEP-2013","13-MAY-2005"],[231,"CDISCPILOT01","701","1153","","VERBATIM_0120","ANAEMIA","ANEMIA","HLT_0378","HLGT_0230","HISTORICAL DIAGNOSIS","BLOOD AND LYMPHATIC SYSTEM DISORDERS",null,"SCREENING 1","06-SEP-2013","1977"],[232,"CDISCPILOT01","701","1153","","VERBATIM_0239","SKIN NEOPLASM EXCISION","SKIN NEOPLASM EXCISION","HLT_0482","HLGT_0467","HISTORICAL DIAGNOSIS","SURGICAL AND MEDICAL PROCEDURES",null,"SCREENING 1","06-SEP-2013","2010"],[233,"CDISCPILOT01","701","1153","","VERBATIM_0688","SKIN CANCER","CARCINOMA SKIN","HLT_0382","HLGT_0439","HISTORICAL DIAGNOSIS","NEOPLASMS BENIGN, MALIGNANT AND UNSPECIFIED (INCL CYSTS AND POLYPS)",null,"SCREENING 1","06-SEP-2013","2010"],[234,"CDISCPILOT01","701","1153","","VERBATIM_1769","SINUSITIS","SINUSITIS","HLT_0262","HLGT_0249","HISTORICAL DIAGNOSIS","INFECTIONS AND INFESTATIONS",null,"SCREENING 1","06-SEP-2013","2011"],[235,"CDISCPILOT01","701","1153","E01","VERBATIM_0705","OEDEMA PERIPHERAL","ANKLE EDEMA","HLT_0661","HLGT_0137","SIGNIFICANT PRE-EXISTING CONDITION","GENERAL DISORDERS AND ADMINISTRATION SITE CONDITIONS",1,"SCREENING 1","06-SEP-2013",""],[236,"CDISCPILOT01","701","1153","E02","VERBATIM_0301","HEADACHE","HEADACHE","HLT_0064","HLGT_0344","SIGNIFICANT PRE-EXISTING CONDITION","NERVOUS SYSTEM DISORDERS",1,"SCREENING 1","06-SEP-2013",""],[237,"CDISCPILOT01","701","1153","E03","VERBATIM_0390","INCREASED TENDENCY TO BRUISE","INCREASED TENDENCY TO BRUISE","HLT_0359","HLGT_0091","SIGNIFICANT PRE-EXISTING CONDITION","SKIN AND SUBCUTANEOUS TISSUE DISORDERS",1,"SCREENING 1","06-SEP-2013",""],[238,"CDISCPILOT01","701","1153","E04","VERBATIM_1443","NECK PAIN","NECK PAIN","HLT_0203","HLGT_0367","SIGNIFICANT PRE-EXISTING CONDITION","MUSCULOSKELETAL AND CONNECTIVE TISSUE DISORDERS",1,"SCREENING 1","06-SEP-2013",""],[239,"CDISCPILOT01","701","1153","E05","VERBATIM_1751","ASTIGMATISM","ASTIGMATISM","HLT_0494","HLGT_0369","SIGNIFICANT PRE-EXISTING CONDITION","EYE DISORDERS",1,"SCREENING 1","06-SEP-2013",""],[240,"CDISCPILOT01","701","1180","","ALZHEIMER'S DISEASE","","","","","PRIMARY DIAGNOSIS","",null,"SCREENING 1","28-JAN-2013","21-SEP-2008"],[241,"CDISCPILOT01","701","1180","E04","VERBATIM_0929","HEADACHE","HEADACHE","HLT_0064","HLGT_0344","SIGNIFICANT PRE-EXISTING CONDITION","NERVOUS SYSTEM DISORDERS",1,"SCREENING 1","28-JAN-2013",""],[242,"CDISCPILOT01","701","1181","","ALZHEIMER'S DISEASE","","","","","PRIMARY DIAGNOSIS","",null,"SCREENING 1","26-NOV-2013","26-AUG-2008"],[243,"CDISCPILOT01","701","1181","","VERBATIM_0124","PNEUMONIA PRIMARY ATYPICAL","WALKING PNEUMONIA","HLT_0364","HLGT_0065","HISTORICAL DIAGNOSIS","INFECTIONS AND INFESTATIONS",null,"SCREENING 1","26-NOV-2013","1989"],[244,"CDISCPILOT01","701","1181","","VERBATIM_0167","HYSTERECTOMY","TOTAL HYSTERECTOMY","HLT_0675","HLGT_0657","HISTORICAL DIAGNOSIS","SURGICAL AND MEDICAL PROCEDURES",null,"SCREENING 1","26-NOV-2013","1967"],[245,"CDISCPILOT01","701","1181","","VERBATIM_0192","JOINT INJURY","ANKLE INJURY","HLT_0264","HLGT_0127","HISTORICAL DIAGNOSIS","INJURY, POISONING AND PROCEDURAL COMPLICATIONS",null,"SCREENING 1","26-NOV-2013","2006"],[246,"CDISCPILOT01","701","1181","","VERBATIM_0204","TOOTH EXTRACTION","TOOTH EXTRACTION","HLT_0209","HLGT_0762","HISTORICAL DIAGNOSIS","SURGICAL AND MEDICAL PROCEDURES",null,"SCREENING 1","26-NOV-2013","1980"],[247,"CDISCPILOT01","701","1181","","VERBATIM_0303","COUGH","COUGH INCREASED","HLT_0701","HLGT_0280","HISTORICAL DIAGNOSIS","RESPIRATORY, THORACIC AND MEDIASTINAL DISORDERS",null,"SCREENING 1","26-NOV-2013","08-JUN-2012"],[248,"CDISCPILOT01","701","1181","","VERBATIM_1143","HEAD INJURY","HEAD INJURY","HLT_0201","HLGT_0554","HISTORICAL DIAGNOSIS","INJURY, POISONING AND PROCEDURAL COMPLICATIONS",null,"SCREENING 1","26-NOV-2013","2006"],[249,"CDISCPILOT01","701","1181","","VERBATIM_1176","BRONCHITIS","BRONCHITIS","HLT_0634","HLGT_0523","HISTORICAL DIAGNOSIS","INFECTIONS AND INFESTATIONS",null,"SCREENING 1","26-NOV-2013","2009"],[250,"CDISCPILOT01","701","1181","","VERBATIM_1716","TONSILLECTOMY","TONSILLECTOMY","HLT_0202","HLGT_0199","HISTORICAL DIAGNOSIS","SURGICAL AND MEDICAL PROCEDURES",null,"SCREENING 1","26-NOV-2013","1940"],[251,"CDISCPILOT01","701","1181","E01","VERBATIM_0929","HEADACHE","HEADACHE","HLT_0064","HLGT_0344","SIGNIFICANT PRE-EXISTING CONDITION","NERVOUS SYSTEM DISORDERS",1,"SCREENING 1","26-NOV-2013",""],[252,"CDISCPILOT01","701","1181","E02","VERBATIM_1533","DIZZINESS","DIZZINESS","HLT_0619","HLGT_0751","SIGNIFICANT PRE-EXISTING CONDITION","NERVOUS SYSTEM DISORDERS",1,"SCREENING 1","26-NOV-2013",""],[253,"CDISCPILOT01","701","1181","E03","VERBATIM_1644","CONFUSIONAL STATE","NOCTURNAL CONFUSION","HLT_0642","HLGT_0329","SIGNIFICANT PRE-EXISTING CONDITION","PSYCHIATRIC DISORDERS",1,"SCREENING 1","26-NOV-2013",""],[254,"CDISCPILOT01","701","1181","E04","VERBATIM_0062","PAIN TRAUMA ACTIVATED","PAIN TRAUMA ACTIVATED","HLT_0579","HLGT_0732","SIGNIFICANT PRE-EXISTING CONDITION","INJURY, POISONING AND PROCEDURAL COMPLICATIONS",1,"SCREENING 1","26-NOV-2013",""],[255,"CDISCPILOT01","701","1181","E05","VERBATIM_0048","PAIN TRAUMA ACTIVATED","PAIN TRAUMA ACTIVATED","HLT_0579","HLGT_0732","SIGNIFICANT PRE-EXISTING CONDITION","INJURY, POISONING AND PROCEDURAL COMPLICATIONS",1,"SCREENING 1","26-NOV-2013",""],[256,"CDISCPILOT01","701","1181","E06","VERBATIM_0966","FINGER DEFORMITY","FINGER DEFORMITY","HLT_0600","HLGT_0600","SIGNIFICANT PRE-EXISTING CONDITION","MUSCULOSKELETAL AND CONNECTIVE TISSUE DISORDERS",1,"SCREENING 1","26-NOV-2013",""],[257,"CDISCPILOT01","701","1181","E07","VERBATIM_0462","FINGER AMPUTATION","FINGER AMPUTATION","HLT_0746","HLGT_0244","SIGNIFICANT PRE-EXISTING CONDITION","SURGICAL AND MEDICAL PROCEDURES",1,"SCREENING 1","26-NOV-2013",""],[258,"CDISCPILOT01","701","1181","E08","VERBATIM_1215","SKELETAL INJURY","BONE INJURY","HLT_0679","HLGT_0099","SIGNIFICANT PRE-EXISTING CONDITION","INJURY, POISONING AND PROCEDURAL COMPLICATIONS",1,"SCREENING 1","26-NOV-2013",""],[259,"CDISCPILOT01","701","1181","E09","VERBATIM_0671","SHOULDER PAIN","SHOULDER PAIN","HLT_0527","HLGT_0288","SIGNIFICANT PRE-EXISTING CONDITION","MUSCULOSKELETAL AND CONNECTIVE TISSUE DISORDERS",1,"SCREENING 1","26-NOV-2013",""],[260,"CDISCPILOT01","701","1181","E10","VERBATIM_1327","ARTHRALGIA","PAIN IN HIP","HLT_0375","HLGT_0610","SIGNIFICANT PRE-EXISTING CONDITION","MUSCULOSKELETAL AND CONNECTIVE TISSUE DISORDERS",1,"SCREENING 1","26-NOV-2013",""],[261,"CDISCPILOT01","701","1181","E11","VERBATIM_0733","ARTHRALGIA","KNEE PAIN","HLT_0375","HLGT_0610","SIGNIFICANT PRE-EXISTING CONDITION","MUSCULOSKELETAL AND CONNECTIVE TISSUE DISORDERS",1,"SCREENING 1","26-NOV-2013",""],[262,"CDISCPILOT01","701","1181","E13","VERBATIM_0978","DEAFNESS BILATERAL","HEARING LOSS BILATERAL","HLT_0567","HLGT_0426","SIGNIFICANT PRE-EXISTING CONDITION","EAR AND LABYRINTH DISORDERS",1,"SCREENING 1","26-NOV-2013",""],[263,"CDISCPILOT01","701","1181","E14","VERBATIM_0507","PRESBYOPIA","PRESBYOPIA","HLT_0230","HLGT_0759","SIGNIFICANT PRE-EXISTING CONDITION","EYE DISORDERS",1,"SCREENING 1","26-NOV-2013",""],[264,"CDISCPILOT01","701","1181","E15","VERBATIM_0686","DENTURE WEARER","DENTURE WEARER","HLT_0246","HLGT_0763","SIGNIFICANT PRE-EXISTING CONDITION","SOCIAL CIRCUMSTANCES",1,"SCREENING 1","26-NOV-2013",""],[265,"CDISCPILOT01","701","1181","E17","VERBATIM_0640","OEDEMA PERIPHERAL","ANKLE EDEMA","HLT_0661","HLGT_0137","SIGNIFICANT PRE-EXISTING CONDITION","GENERAL DISORDERS AND ADMINISTRATION SITE CONDITIONS",1,"SCREENING 1","26-NOV-2013",""],[266,"CDISCPILOT01","701","1188","","ALZHEIMER'S DISEASE","","","","","PRIMARY DIAGNOSIS","",null,"SCREENING 1","03-FEB-2013","14-SEP-2005"],[267,"CDISCPILOT01","701","1188","","VERBATIM_0080","HEADACHE","HEADACHE","HLT_0064","HLGT_0344","HISTORICAL DIAGNOSIS","NERVOUS SYSTEM DISORDERS",null,"SCREENING 1","03-FEB-2013","2001"],[268,"CDISCPILOT01","701","1188","","VERBATIM_0138","BENIGN PROSTATIC HYPERPLASIA","BENIGN PROSTATIC HYPERTROPHY","HLT_0215","HLGT_0568","HISTORICAL DIAGNOSIS","REPRODUCTIVE SYSTEM AND BREAST DISORDERS",null,"SCREENING 1","03-FEB-2013","1996"],[269,"CDISCPILOT01","701","1188","","VERBATIM_1230","PHARYNGOLARYNGEAL PAIN","SORE THROAT","HLT_0130","HLGT_0402","HISTORICAL DIAGNOSIS","RESPIRATORY, THORACIC AND MEDIASTINAL DISORDERS",null,"SCREENING 1","03-FEB-2013","08-JUN-2011"],[270,"CDISCPILOT01","701","1188","","VERBATIM_1363","PROSTATIC OPERATION","PROSTATIC OPERATION","HLT_0385","HLGT_0342","HISTORICAL DIAGNOSIS","SURGICAL AND MEDICAL PROCEDURES",null,"SCREENING 1","03-FEB-2013","1996"],[271,"CDISCPILOT01","701","1188","","VERBATIM_1729","WISDOM TEETH REMOVAL","WISDOM TEETH REMOVAL","HLT_0442","HLGT_0679","HISTORICAL DIAGNOSIS","SURGICAL AND MEDICAL PROCEDURES",null,"SCREENING 1","03-FEB-2013","1964"],[272,"CDISCPILOT01","701","1188","","VERBATIM_1733","URTICARIA","ALLERGIC URTICARIA","HLT_0420","HLGT_0705","HISTORICAL DIAGNOSIS","SKIN AND SUBCUTANEOUS TISSUE DISORDERS",null,"SCREENING 1","03-FEB-2013","1991"],[273,"CDISCPILOT01","701","1188","E01","VERBATIM_1279","DRY SKIN","DRY SKIN","HLT_0028","HLGT_0096","SIGNIFICANT PRE-EXISTING CONDITION","SKIN AND SUBCUTANEOUS TISSUE DISORDERS",1,"SCREENING 1","03-FEB-2013",""],[274,"CDISCPILOT01","701","1188","E02","VERBATIM_0101","GANGLION","GANGLION","HLT_0674","HLGT_0046","SIGNIFICANT PRE-EXISTING CONDITION","MUSCULOSKELETAL AND CONNECTIVE TISSUE DISORDERS",1,"SCREENING 1","03-FEB-2013",""],[275,"CDISCPILOT01","701","1188","E03","VERBATIM_0507","PRESBYOPIA","PRESBYOPIA","HLT_0230","HLGT_0759","SIGNIFICANT PRE-EXISTING CONDITION","EYE DISORDERS",1,"SCREENING 1","03-FEB-2013",""],[276,"CDISCPILOT01","701","1192","","ALZHEIMER'S DISEASE","","","","","PRIMARY DIAGNOSIS","",null,"SCREENING 1","08-JUL-2012","15-MAR-2009"],[277,"CDISCPILOT01","701","1192","","VERBATIM_0301","HEADACHE","HEADACHE","HLT_0064","HLGT_0344","HISTORICAL DIAGNOSIS","NERVOUS SYSTEM DISORDERS",null,"SCREENING 1","08-JUL-2012","1966"],[278,"CDISCPILOT01","701","1192","","VERBATIM_0435","ABORTION","ABORTION","HLT_0624","HLGT_0366","HISTORICAL DIAGNOSIS","PREGNANCY, PUERPERIUM AND PERINATAL CONDITIONS",null,"SCREENING 1","08-JUL-2012","1946"],[279,"CDISCPILOT01","701","1192","","VERBATIM_0576","CYST","CYST","HLT_0763","HLGT_0341","HISTORICAL DIAGNOSIS","GENERAL DISORDERS AND ADMINISTRATION SITE CONDITIONS",null,"SCREENING 1","08-JUL-2012","22-APR-2010"],[280,"CDISCPILOT01","701","1192","","VERBATIM_0579","UPPER RESPIRATORY TRACT INFECTION","UPPER RESPIRATORY INFECTION","HLT_0520","HLGT_0489","HISTORICAL DIAGNOSIS","INFECTIONS AND INFESTATIONS",null,"SCREENING 1","08-JUL-2012","SEP-2010"],[281,"CDISCPILOT01","701","1192","","VERBATIM_0721","DUODENAL ULCER","DUODENAL ULCER","HLT_0322","HLGT_0349","HISTORICAL DIAGNOSIS","GASTROINTESTINAL DISORDERS",null,"SCREENING 1","08-JUL-2012","1966"],[282,"CDISCPILOT01","701","1192","","VERBATIM_1176","BRONCHITIS","BRONCHITIS","HLT_0634","HLGT_0523","HISTORICAL DIAGNOSIS","INFECTIONS AND INFESTATIONS",null,"SCREENING 1","08-JUL-2012","SEP-2010"],[283,"CDISCPILOT01","701","1192","","VERBATIM_1391","NASAL CYST REMOVAL","NASAL CYST REMOVAL","HLT_0086","HLGT_0082","HISTORICAL DIAGNOSIS","SURGICAL AND MEDICAL PROCEDURES",null,"SCREENING 1","08-JUL-2012","22-APR-2010"],[284,"CDISCPILOT01","701","1192","","VERBATIM_1436","HIP ARTHROPLASTY","HIP REPLACEMENT","HLT_0709","HLGT_0449","HISTORICAL DIAGNOSIS","SURGICAL AND MEDICAL PROCEDURES",null,"SCREENING 1","08-JUL-2012","2000"],[285,"CDISCPILOT01","701","1192","","VERBATIM_1436","HIP ARTHROPLASTY","HIP REPLACEMENT","HLT_0709","HLGT_0449","HISTORICAL DIAGNOSIS","SURGICAL AND MEDICAL PROCEDURES",null,"SCREENING 1","08-JUL-2012","2000"],[286,"CDISCPILOT01","701","1192","","VERBATIM_1475","GONORRHOEA","GONORRHEA","HLT_0638","HLGT_0171","HISTORICAL DIAGNOSIS","INFECTIONS AND INFESTATIONS",null,"SCREENING 1","08-JUL-2012","1946"],[287,"CDISCPILOT01","701","1192","","VERBATIM_1533","DIZZINESS","DIZZINESS","HLT_0619","HLGT_0751","HISTORICAL DIAGNOSIS","NERVOUS SYSTEM DISORDERS",null,"SCREENING 1","08-JUL-2012","JAN-2011"],[288,"CDISCPILOT01","701","1192","","VERBATIM_1562","MALAISE","MALAISE","HLT_0456","HLGT_0178","HISTORICAL DIAGNOSIS","GENERAL DISORDERS AND ADMINISTRATION SITE CONDITIONS",null,"SCREENING 1","08-JUL-2012","APR-2009"],[289,"CDISCPILOT01","701","1192","","VERBATIM_1703","VERTIGO","VERTIGO","HLT_0255","HLGT_0147","HISTORICAL DIAGNOSIS","EAR AND LABYRINTH DISORDERS",null,"SCREENING 1","08-JUL-2012","APR-2009"],[290,"CDISCPILOT01","701","1192","","VERBATIM_1716","TONSILLECTOMY","TONSILLECTOMY","HLT_0202","HLGT_0199","HISTORICAL DIAGNOSIS","SURGICAL AND MEDICAL PROCEDURES",null,"SCREENING 1","08-JUL-2012","1944"],[291,"CDISCPILOT01","701","1192","E01","VERBATIM_1421","COUGH","COUGH","HLT_0701","HLGT_0280","SIGNIFICANT PRE-EXISTING CONDITION","RESPIRATORY, THORACIC AND MEDIASTINAL DISORDERS",1,"SCREENING 1","08-JUL-2012",""],[292,"CDISCPILOT01","701","1192","E02","VERBATIM_1432","GOITRE","THYROID ENLARGED","HLT_0573","HLGT_0499","SIGNIFICANT PRE-EXISTING CONDITION","ENDOCRINE DISORDERS",2,"SCREENING 1","08-JUL-2012",""],[293,"CDISCPILOT01","701","1192","E03","VERBATIM_1309","ARTHRITIS","ARTHRITIS","HLT_0019","HLGT_0587","SIGNIFICANT PRE-EXISTING CONDITION","MUSCULOSKELETAL AND CONNECTIVE TISSUE DISORDERS",1,"SCREENING 1","08-JUL-2012",""],[294,"CDISCPILOT01","701","1192","E04","VERBATIM_1677","DEAFNESS BILATERAL","HEARING LOSS BILATERAL","HLT_0567","HLGT_0426","SIGNIFICANT PRE-EXISTING CONDITION","EAR AND LABYRINTH DISORDERS",1,"SCREENING 1","08-JUL-2012",""],[295,"CDISCPILOT01","701","1192","E05","VERBATIM_0507","PRESBYOPIA","PRESBYOPIA","HLT_0230","HLGT_0759","SIGNIFICANT PRE-EXISTING CONDITION","EYE DISORDERS",1,"SCREENING 1","08-JUL-2012",""],[296,"CDISCPILOT01","701","1192","E07","VERBATIM_1674","IMPAIRED HEALING","DELAYED HEALING OF WOUND","HLT_0424","HLGT_0459","SIGNIFICANT PRE-EXISTING CONDITION","GENERAL DISORDERS AND ADMINISTRATION SITE CONDITIONS",1,"SCREENING 1","08-JUL-2012",""],[297,"CDISCPILOT01","701","1192","E15","VERBATIM_0908","MYOCARDIAL INFARCTION","INFERIOR MYOCARDIAL INFARCTION","HLT_0649","HLGT_0688","SIGNIFICANT PRE-EXISTING CONDITION","CARDIAC DISORDERS",1,"SCREENING 1","08-JUL-2012",""],[298,"CDISCPILOT01","701","1203","","ALZHEIMER'S DISEASE","","","","","PRIMARY DIAGNOSIS","",null,"SCREENING 1","25-JAN-2013","19-APR-2011"],[299,"CDISCPILOT01","701","1203","","VERBATIM_0606","RADICAL MASTECTOMY","MASTECTOMY RADICAL","HLT_0697","HLGT_0545","HISTORICAL DIAGNOSIS","SURGICAL AND MEDICAL PROCEDURES",null,"SCREENING 1","25-JAN-2013","1972"],[300,"CDISCPILOT01","701","1203","","VERBATIM_0682","HYSTERECTOMY","TOTAL HYSTERECTOMY","HLT_0675","HLGT_0657","HISTORICAL DIAGNOSIS","SURGICAL AND MEDICAL PROCEDURES",null,"SCREENING 1","25-JAN-2013","1971"],[301,"CDISCPILOT01","701","1203","","VERBATIM_1484","HYPERTHYROIDISM","HYPERTHYROIDISM","HLT_0441","HLGT_0736","HISTORICAL DIAGNOSIS","ENDOCRINE DISORDERS",null,"SCREENING 1","25-JAN-2013","1991"],[302,"CDISCPILOT01","701","1203","","VERBATIM_1487","KNEE ARTHROPLASTY","KNEE TOTAL REPLACEMENT","HLT_0710","HLGT_0078","HISTORICAL DIAGNOSIS","SURGICAL AND MEDICAL PROCEDURES",null,"SCREENING 1","25-JAN-2013","2008"],[303,"CDISCPILOT01","701","1203","","VERBATIM_1506","BREAST CANCER","BREAST CANCER","HLT_0101","HLGT_0442","HISTORICAL DIAGNOSIS","NEOPLASMS BENIGN, MALIGNANT AND UNSPECIFIED (INCL CYSTS AND POLYPS)",null,"SCREENING 1","25-JAN-2013","1972"],[304,"CDISCPILOT01","701","1203","E01","VERBATIM_1491","POLYARTHRITIS","POLYARTHRITIS","HLT_0134","HLGT_0167","SIGNIFICANT PRE-EXISTING CONDITION","MUSCULOSKELETAL AND CONNECTIVE TISSUE DISORDERS",2,"SCREENING 1","25-JAN-2013",""],[305,"CDISCPILOT01","701","1203","E02","VERBATIM_0287","ARTHRALGIA","KNEE PAIN","HLT_0375","HLGT_0610","SIGNIFICANT PRE-EXISTING CONDITION","MUSCULOSKELETAL AND CONNECTIVE TISSUE DISORDERS",1,"SCREENING 1","25-JAN-2013",""],[306,"CDISCPILOT01","701","1203","E03","VERBATIM_0308","GLAUCOMA","GLAUCOMA","HLT_0556","HLGT_0734","SIGNIFICANT PRE-EXISTING CONDITION","EYE DISORDERS",2,"SCREENING 1","25-JAN-2013",""],[307,"CDISCPILOT01","701","1203","E04","VERBATIM_0507","PRESBYOPIA","PRESBYOPIA","HLT_0230","HLGT_0759","SIGNIFICANT PRE-EXISTING CONDITION","EYE DISORDERS",2,"SCREENING 1","25-JAN-2013",""],[308,"CDISCPILOT01","701","1211","","ALZHEIMER'S DISEASE","","","","","PRIMARY DIAGNOSIS","",null,"SCREENING 1","30-OCT-2012","19-MAR-2010"],[309,"CDISCPILOT01","701","1211","","VERBATIM_0859","LIMB INJURY","LEG INJURY","HLT_0476","HLGT_0667","HISTORICAL DIAGNOSIS","INJURY, POISONING AND PROCEDURAL COMPLICATIONS",null,"SCREENING 1","30-OCT-2012","2011"],[310,"CDISCPILOT01","701","1211","","VERBATIM_0936","HYSTERECTOMY","HYSTERECTOMY","HLT_0675","HLGT_0657","HISTORICAL DIAGNOSIS","SURGICAL AND MEDICAL PROCEDURES",null,"SCREENING 1","30-OCT-2012","1971"],[311,"CDISCPILOT01","701","1211","","VERBATIM_0948","SKIN ULCER","LEG ULCER (EXCL VARICOSE)","HLT_0005","HLGT_0017","HISTORICAL DIAGNOSIS","SKIN AND SUBCUTANEOUS TISSUE DISORDERS",null,"SCREENING 1","30-OCT-2012","2011"],[312,"CDISCPILOT01","701","1211","","VERBATIM_1498","LENS IMPLANT","LENS IMPLANT","HLT_0106","HLGT_0204","HISTORICAL DIAGNOSIS","SURGICAL AND MEDICAL PROCEDURES",null,"SCREENING 1","30-OCT-2012","1996"],[313,"CDISCPILOT01","701","1211","","VERBATIM_1716","TONSILLECTOMY","TONSILLECTOMY","HLT_0202","HLGT_0199","HISTORICAL DIAGNOSIS","SURGICAL AND MEDICAL PROCEDURES",null,"SCREENING 1","30-OCT-2012","1946"],[314,"CDISCPILOT01","701","1211","E01","VERBATIM_1573","DIABETES MELLITUS NON-INSULIN-DEPENDENT","NON-INSULIN-DEPENDENT DIABETES MELLITUS","HLT_0706","HLGT_0092","SIGNIFICANT PRE-EXISTING CONDITION","METABOLISM AND NUTRITION DISORDERS",1,"SCREENING 1","30-OCT-2012",""],[315,"CDISCPILOT01","701","1211","E02","VERBATIM_0200","DENTURE WEARER","DENTURE WEARER","HLT_0246","HLGT_0763","SIGNIFICANT PRE-EXISTING CONDITION","SOCIAL CIRCUMSTANCES",1,"SCREENING 1","30-OCT-2012",""],[316,"CDISCPILOT01","701","1211","E07","VERBATIM_0713","TINNITUS","NOISES IN HEAD","HLT_0570","HLGT_0180","SIGNIFICANT PRE-EXISTING CONDITION","EAR AND LABYRINTH DISORDERS",1,"SCREENING 1","30-OCT-2012",""],[317,"CDISCPILOT01","701","1211","E10","VERBATIM_1126","DIARRHOEA","DIARRHEA","HLT_0148","HLGT_0588","SIGNIFICANT PRE-EXISTING CONDITION","GASTROINTESTINAL DISORDERS",1,"SCREENING 1","30-OCT-2012",""],[318,"CDISCPILOT01","701","1234","","ALZHEIMER'S DISEASE","","","","","PRIMARY DIAGNOSIS","",null,"SCREENING 1","20-MAR-2013","11-AUG-2006"],[319,"CDISCPILOT01","701","1234","","VERBATIM_0071","OSTEOARTHRITIS","SHOULDER OSTEOARTHRITIS","HLT_0247","HLGT_0462","HISTORICAL DIAGNOSIS","MUSCULOSKELETAL AND CONNECTIVE TISSUE DISORDERS",null,"SCREENING 1","20-MAR-2013","2000"],[320,"CDISCPILOT01","701","1234","","VERBATIM_0164","HYPERCHOLESTEROLAEMIA","HYPERCHOLESTEROLEMIA","HLT_0025","HLGT_0703","HISTORICAL DIAGNOSIS","METABOLISM AND NUTRITION DISORDERS",null,"SCREENING 1","20-MAR-2013","20-MAR-2013"],[321,"CDISCPILOT01","701","1234","","VERBATIM_0177","UMBILICAL HERNIA REPAIR","UMBILICAL HERNIA REPAIR","HLT_0278","HLGT_0377","HISTORICAL DIAGNOSIS","SURGICAL AND MEDICAL PROCEDURES",null,"SCREENING 1","20-MAR-2013","2001"],[322,"CDISCPILOT01","701","1234","","VERBATIM_0357","TENDON REPAIR","TENDON REPAIR","HLT_0434","HLGT_0246","HISTORICAL DIAGNOSIS","SURGICAL AND MEDICAL PROCEDURES",null,"SCREENING 1","20-MAR-2013","1994"],[323,"CDISCPILOT01","701","1234","","VERBATIM_0500","SHOULDER ARTHROPLASTY","ACROMIOPLASTY","HLT_0406","HLGT_0756","HISTORICAL DIAGNOSIS","SURGICAL AND MEDICAL PROCEDURES",null,"SCREENING 1","20-MAR-2013","1999"],[324,"CDISCPILOT01","701","1234","","VERBATIM_0500","SHOULDER ARTHROPLASTY","ACROMIOPLASTY","HLT_0406","HLGT_0756","HISTORICAL DIAGNOSIS","SURGICAL AND MEDICAL PROCEDURES",null,"SCREENING 1","20-MAR-2013","2000"],[325,"CDISCPILOT01","701","1234","","VERBATIM_0638","INGUINAL HERNIA REPAIR","INGUINAL HERNIA REPAIR","HLT_0320","HLGT_0772","HISTORICAL DIAGNOSIS","SURGICAL AND MEDICAL PROCEDURES",null,"SCREENING 1","20-MAR-2013","2001"],[326,"CDISCPILOT01","701","1234","","VERBATIM_0747","CATARACT OPERATION","CATARACT OPERATION","HLT_0432","HLGT_0058","HISTORICAL DIAGNOSIS","SURGICAL AND MEDICAL PROCEDURES",null,"SCREENING 1","20-MAR-2013","2002"],[327,"CDISCPILOT01","701","1234","","VERBATIM_0881","CATARACT OPERATION","CATARACT OPERATION","HLT_0432","HLGT_0058","HISTORICAL DIAGNOSIS","SURGICAL AND MEDICAL PROCEDURES",null,"SCREENING 1","20-MAR-2013","2004"],[328,"CDISCPILOT01","701","1234","","VERBATIM_1078","RETINAL DETACHMENT","DETACHED RETINA","HLT_0490","HLGT_0223","HISTORICAL DIAGNOSIS","EYE DISORDERS",null,"SCREENING 1","20-MAR-2013","2009"],[329,"CDISCPILOT01","701","1234","","VERBATIM_1323","DETACHED RETINA REPAIR","DETACHED RETINA REPAIR","HLT_0345","HLGT_0473","HISTORICAL DIAGNOSIS","SURGICAL AND MEDICAL PROCEDURES",null,"SCREENING 1","20-MAR-2013","2009"],[330,"CDISCPILOT01","701","1234","","VERBATIM_1716","TONSILLECTOMY","TONSILLECTOMY","HLT_0202","HLGT_0199","HISTORICAL DIAGNOSIS","SURGICAL AND MEDICAL PROCEDURES",null,"SCREENING 1","20-MAR-2013","1949"],[331,"CDISCPILOT01","701","1234","","VERBATIM_1775","APPENDICECTOMY","APPENDECTOMY","HLT_0707","HLGT_0363","HISTORICAL DIAGNOSIS","SURGICAL AND MEDICAL PROCEDURES",null,"SCREENING 1","20-MAR-2013","1949"],[332,"CDISCPILOT01","701","1234","E01","VERBATIM_0507","PRESBYOPIA","PRESBYOPIA","HLT_0230","HLGT_0759","SIGNIFICANT PRE-EXISTING CONDITION","EYE DISORDERS",1,"SCREENING 1","20-MAR-2013",""],[333,"CDISCPILOT01","701","1239","","ALZHEIMER'S DISEASE","","","","","PRIMARY DIAGNOSIS","",null,"SCREENING 1","28-DEC-2013","23-SEP-2003"],[334,"CDISCPILOT01","701","1239","","VERBATIM_0189","CHEST PAIN","CHEST PAIN","HLT_0717","HLGT_0195","HISTORICAL DIAGNOSIS","GENERAL DISORDERS AND ADMINISTRATION SITE CONDITIONS",null,"SCREENING 1","28-DEC-2013","2006"],[335,"CDISCPILOT01","701","1239","","VERBATIM_0236","TOOTH EXTRACTION","TOOTH EXTRACTION NOS","HLT_0209","HLGT_0762","HISTORICAL DIAGNOSIS","SURGICAL AND MEDICAL PROCEDURES",null,"SCREENING 1","28-DEC-2013","1979"],[336,"CDISCPILOT01","701","1239","","VERBATIM_0342","HYPERTENSION","HYPERTENSION","HLT_0228","HLGT_0476","HISTORICAL DIAGNOSIS","VASCULAR DISORDERS",null,"SCREENING 1","28-DEC-2013","2006"],[337,"CDISCPILOT01","701","1239","","VERBATIM_1188","KNEE OPERATION","KNEE SURGERY NOS","HLT_0319","HLGT_0033","HISTORICAL DIAGNOSIS","SURGICAL AND MEDICAL PROCEDURES",null,"SCREENING 1","28-DEC-2013","2008"],[338,"CDISCPILOT01","701","1239","","VERBATIM_1775","APPENDICECTOMY","APPENDECTOMY","HLT_0707","HLGT_0363","HISTORICAL DIAGNOSIS","SURGICAL AND MEDICAL PROCEDURES",null,"SCREENING 1","28-DEC-2013","1980"],[339,"CDISCPILOT01","701","1239","E01","VERBATIM_1760","OEDEMA","EDEMA","HLT_0656","HLGT_0036","SIGNIFICANT PRE-EXISTING CONDITION","GENERAL DISORDERS AND ADMINISTRATION SITE CONDITIONS",1,"SCREENING 1","28-DEC-2013",""],[340,"CDISCPILOT01","701","1239","E02","VERBATIM_0876","DIZZINESS","DIZZINESS","HLT_0619","HLGT_0751","SIGNIFICANT PRE-EXISTING CONDITION","NERVOUS SYSTEM DISORDERS",1,"SCREENING 1","28-DEC-2013",""],[341,"CDISCPILOT01","701","1239","E03","VERBATIM_0574","DIABETES MELLITUS NON-INSULIN-DEPENDENT","TYPE II DIABETES MELLITUS","HLT_0706","HLGT_0092","SIGNIFICANT PRE-EXISTING CONDITION","METABOLISM AND NUTRITION DISORDERS",1,"SCREENING 1","28-DEC-2013",""],[342,"CDISCPILOT01","701","1239","E04","VERBATIM_0567","PARAESTHESIA","TINGLING FEET/HANDS","HLT_0481","HLGT_0534","SIGNIFICANT PRE-EXISTING CONDITION","NERVOUS SYSTEM DISORDERS",1,"SCREENING 1","28-DEC-2013",""],[343,"CDISCPILOT01","701","1239","E05","VERBATIM_1669","GOUT","GOUT","HLT_0396","HLGT_0479","SIGNIFICANT PRE-EXISTING CONDITION","METABOLISM AND NUTRITION DISORDERS",1,"SCREENING 1","28-DEC-2013",""],[344,"CDISCPILOT01","701","1239","E06","VERBATIM_1316","POLYARTHRITIS","POLYARTHRITIS","HLT_0134","HLGT_0167","SIGNIFICANT PRE-EXISTING CONDITION","MUSCULOSKELETAL AND CONNECTIVE TISSUE DISORDERS",1,"SCREENING 1","28-DEC-2013",""],[345,"CDISCPILOT01","701","1239","E07","VERBATIM_0391","DEAFNESS","HEARING LOSS","HLT_0234","HLGT_0025","SIGNIFICANT PRE-EXISTING CONDITION","EAR AND LABYRINTH DISORDERS",1,"SCREENING 1","28-DEC-2013",""],[346,"CDISCPILOT01","701","1239","E08","VERBATIM_1411","MYOPIA","MYOPIA","HLT_0282","HLGT_0271","SIGNIFICANT PRE-EXISTING CONDITION","EYE DISORDERS",1,"SCREENING 1","28-DEC-2013",""],[347,"CDISCPILOT01","701","1239","E10","VERBATIM_1197","ALOPECIA","HAIR LOSS","HLT_0077","HLGT_0234","SIGNIFICANT PRE-EXISTING CONDITION","SKIN AND SUBCUTANEOUS TISSUE DISORDERS",1,"SCREENING 1","28-DEC-2013",""],[348,"CDISCPILOT01","701","1275","","ALZHEIMER'S DISEASE","","","","","PRIMARY DIAGNOSIS","",null,"SCREENING 1","25-JAN-2014","17-SEP-2011"],[349,"CDISCPILOT01","701","1275","E01","VERBATIM_0021","NOCTURIA","NOCTURIA","HLT_0509","HLGT_0605","SIGNIFICANT PRE-EXISTING CONDITION","RENAL AND URINARY DISORDERS",1,"SCREENING 1","25-JAN-2014",""],[350,"CDISCPILOT01","701","1275","E02","VERBATIM_0301","HEADACHE","HEADACHE","HLT_0064","HLGT_0344","SIGNIFICANT PRE-EXISTING CONDITION","NERVOUS SYSTEM DISORDERS",1,"SCREENING 1","25-JAN-2014",""],[351,"CDISCPILOT01","701","1275","E03","VERBATIM_1683","HYPERMETROPIA","HYPEROPIA","HLT_0546","HLGT_0646","SIGNIFICANT PRE-EXISTING CONDITION","EYE DISORDERS",1,"SCREENING 1","25-JAN-2014",""],[352,"CDISCPILOT01","701","1287","","ALZHEIMER'S DISEASE","","","","","PRIMARY DIAGNOSIS","",null,"SCREENING 1","17-JAN-2014","30-OCT-2009"],[353,"CDISCPILOT01","701","1287","","VERBATIM_0526","TUBERCULOSIS","TUBERCULOSIS","HLT_0344","HLGT_0774","HISTORICAL DIAGNOSIS","INFECTIONS AND INFESTATIONS",null,"SCREENING 1","17-JAN-2014","1979"],[354,"CDISCPILOT01","701","1287","","VERBATIM_1280","ANXIETY","ANXIETY","HLT_0559","HLGT_0570","HISTORICAL DIAGNOSIS","PSYCHIATRIC DISORDERS",null,"SCREENING 1","17-JAN-2014","2010"],[355,"CDISCPILOT01","701","1287","","VERBATIM_1763","TUBAL LIGATION","TUBAL LIGATION","HLT_0730","HLGT_0608","HISTORICAL DIAGNOSIS","SURGICAL AND MEDICAL PROCEDURES",null,"SCREENING 1","17-JAN-2014","1991"],[356,"CDISCPILOT01","701","1287","E01","VERBATIM_1532","MYOPIA","MYOPIA","HLT_0282","HLGT_0271","SIGNIFICANT PRE-EXISTING CONDITION","EYE DISORDERS",1,"SCREENING 1","17-JAN-2014",""],[357,"CDISCPILOT01","701","1294","","ALZHEIMER'S DISEASE","","","","","PRIMARY DIAGNOSIS","",null,"SCREENING 1","17-MAR-2013","09-SEP-2011"],[358,"CDISCPILOT01","701","1294","","VERBATIM_0721","DUODENAL ULCER","DUODENAL ULCER","HLT_0322","HLGT_0349","HISTORICAL DIAGNOSIS","GASTROINTESTINAL DISORDERS",null,"SCREENING 1","17-MAR-2013","1976"],[359,"CDISCPILOT01","701","1294","","VERBATIM_0739","NEPHROLITHIASIS","KIDNEY STONES","HLT_0439","HLGT_0546","HISTORICAL DIAGNOSIS","RENAL AND URINARY DISORDERS",null,"SCREENING 1","17-MAR-2013","1976"],[360,"CDISCPILOT01","701","1294","","VERBATIM_1187","HAEMORRHOID OPERATION","HEMORRHOIDECTOMY","HLT_0300","HLGT_0468","HISTORICAL DIAGNOSIS","SURGICAL AND MEDICAL PROCEDURES",null,"SCREENING 1","17-MAR-2013","1966"],[361,"CDISCPILOT01","701","1294","","VERBATIM_1380","ARTHROSCOPY","ARTHROSCOPY R KNEE","HLT_0048","HLGT_0296","HISTORICAL DIAGNOSIS","INVESTIGATIONS",null,"SCREENING 1","17-MAR-2013","DEC-2012"],[362,"CDISCPILOT01","701","1294","","VERBATIM_1716","TONSILLECTOMY","TONSILLECTOMY","HLT_0202","HLGT_0199","HISTORICAL DIAGNOSIS","SURGICAL AND MEDICAL PROCEDURES",null,"SCREENING 1","17-MAR-2013","1946"],[363,"CDISCPILOT01","701","1294","E01","VERBATIM_0162","HERPES SIMPLEX","GENITAL HERPES","HLT_0715","HLGT_0438","SIGNIFICANT PRE-EXISTING CONDITION","INFECTIONS AND INFESTATIONS",1,"SCREENING 1","17-MAR-2013",""],[364,"CDISCPILOT01","701","1294","E02","VERBATIM_1491","POLYARTHRITIS","POLYARTHRITIS","HLT_0134","HLGT_0167","SIGNIFICANT PRE-EXISTING CONDITION","MUSCULOSKELETAL AND CONNECTIVE TISSUE DISORDERS",1,"SCREENING 1","17-MAR-2013",""],[365,"CDISCPILOT01","701","1294","E03","VERBATIM_1063","SPONDYLITIS","ARTHRITIS OF NECK","HLT_0418","HLGT_0708","SIGNIFICANT PRE-EXISTING CONDITION","MUSCULOSKELETAL AND CONNECTIVE TISSUE DISORDERS",1,"SCREENING 1","17-MAR-2013",""],[366,"CDISCPILOT01","701","1294","E04","VERBATIM_1769","SINUSITIS","SINUSITIS","HLT_0262","HLGT_0249","SIGNIFICANT PRE-EXISTING CONDITION","INFECTIONS AND INFESTATIONS",1,"SCREENING 1","17-MAR-2013",""],[367,"CDISCPILOT01","701","1294","E05","VERBATIM_0464","VISUAL ACUITY REDUCED","VISION DECREASED","HLT_0421","HLGT_0524","SIGNIFICANT PRE-EXISTING CONDITION","EYE DISORDERS",1,"SCREENING 1","17-MAR-2013",""],[368,"CDISCPILOT01","701","1302","","ALZHEIMER'S DISEASE","","","","","PRIMARY DIAGNOSIS","",null,"SCREENING 1","20-AUG-2013","09-FEB-2007"],[369,"CDISCPILOT01","701","1302","","VERBATIM_0123","RECTAL HAEMORRHAGE","BLEEDING RECTAL","HLT_0353","HLGT_0755","HISTORICAL DIAGNOSIS","GASTROINTESTINAL DISORDERS",null,"SCREENING 1","20-AUG-2013","15-MAR-2012"],[370,"CDISCPILOT01","701","1302","","VERBATIM_0558","MYALGIA","MUSCLE PAIN","HLT_0700","HLGT_0121","HISTORICAL DIAGNOSIS","MUSCULOSKELETAL AND CONNECTIVE TISSUE DISORDERS",null,"SCREENING 1","20-AUG-2013","04-APR-2012"],[371,"CDISCPILOT01","701","1302","","VERBATIM_0579","UPPER RESPIRATORY TRACT INFECTION","UPPER RESPIRATORY INFECTION","HLT_0520","HLGT_0489","HISTORICAL DIAGNOSIS","INFECTIONS AND INFESTATIONS",null,"SCREENING 1","20-AUG-2013","04-APR-2012"],[372,"CDISCPILOT01","701","1302","","VERBATIM_0919","PNEUMONIA","PNEUMONIA","HLT_0251","HLGT_0671","HISTORICAL DIAGNOSIS","INFECTIONS AND INFESTATIONS",null,"SCREENING 1","20-AUG-2013","1966"],[373,"CDISCPILOT01","701","1302","","VERBATIM_1233","INGUINAL HERNIA REPAIR","INGUINAL HERNIA REPAIR","HLT_0320","HLGT_0772","HISTORICAL DIAGNOSIS","SURGICAL AND MEDICAL PROCEDURES",null,"SCREENING 1","20-AUG-2013","1995"],[374,"CDISCPILOT01","701","1302","","VERBATIM_1438","HERNIA REPAIR","HERNIA REPAIR","HLT_0766","HLGT_0696","HISTORICAL DIAGNOSIS","SURGICAL AND MEDICAL PROCEDURES",null,"SCREENING 1","20-AUG-2013","AUG-2012"],[375,"CDISCPILOT01","701","1302","","VERBATIM_1463","ANKLE FRACTURE","ANKLE FRACTURE","HLT_0208","HLGT_0252","HISTORICAL DIAGNOSIS","INJURY, POISONING AND PROCEDURAL COMPLICATIONS",null,"SCREENING 1","20-AUG-2013","1967"],[376,"CDISCPILOT01","701","1302","","VERBATIM_1475","GONORRHOEA","GONORRHEA","HLT_0638","HLGT_0171","HISTORICAL DIAGNOSIS","INFECTIONS AND INFESTATIONS",null,"SCREENING 1","20-AUG-2013","1973"],[377,"CDISCPILOT01","701","1302","","VERBATIM_1716","TONSILLECTOMY","TONSILLECTOMY","HLT_0202","HLGT_0199","HISTORICAL DIAGNOSIS","SURGICAL AND MEDICAL PROCEDURES",null,"SCREENING 1","20-AUG-2013","1956"],[378,"CDISCPILOT01","701","1302","","VERBATIM_1738","TOOTH EXTRACTION","TOOTH EXTRACTION","HLT_0209","HLGT_0762","HISTORICAL DIAGNOSIS","SURGICAL AND MEDICAL PROCEDURES",null,"SCREENING 1","20-AUG-2013","1997"],[379,"CDISCPILOT01","701","1302","","VERBATIM_1747","PAINFUL DEFAECATION","PAINFUL DEFECATION","HLT_0379","HLGT_0315","HISTORICAL DIAGNOSIS","GASTROINTESTINAL DISORDERS",null,"SCREENING 1","20-AUG-2013","15-MAR-2012"],[380,"CDISCPILOT01","701","1302","","VERBATIM_1768","HAEMORRHOIDS","INTERNAL HEMORRHOIDS","HLT_0681","HLGT_0485","HISTORICAL DIAGNOSIS","GASTROINTESTINAL DISORDERS",null,"SCREENING 1","20-AUG-2013","1993"],[381,"CDISCPILOT01","701","1302","E01","VERBATIM_0148","MIGRAINE WITH AURA","OPHTHALMIC MIGRAINE","HLT_0029","HLGT_0710","SIGNIFICANT PRE-EXISTING CONDITION","NERVOUS SYSTEM DISORDERS",1,"SCREENING 1","20-AUG-2013",""],[382,"CDISCPILOT01","701","1302","E02","VERBATIM_0929","HEADACHE","HEADACHE","HLT_0064","HLGT_0344","SIGNIFICANT PRE-EXISTING CONDITION","NERVOUS SYSTEM DISORDERS",1,"SCREENING 1","20-AUG-2013",""],[383,"CDISCPILOT01","701","1302","E03","VERBATIM_1094","VASODILATATION","DILATED VEINS","HLT_0453","HLGT_0394","SIGNIFICANT PRE-EXISTING CONDITION","VASCULAR DISORDERS",1,"SCREENING 1","20-AUG-2013",""],[384,"CDISCPILOT01","701","1302","E04","VERBATIM_0894","HERPES SIMPLEX","HERPES LESION INTRA-ORAL","HLT_0715","HLGT_0438","SIGNIFICANT PRE-EXISTING CONDITION","INFECTIONS AND INFESTATIONS",1,"SCREENING 1","20-AUG-2013",""],[385,"CDISCPILOT01","701","1302","E05","VERBATIM_0045","WHIPLASH INJURY","WHIPLASH INJURY","HLT_0632","HLGT_0653","SIGNIFICANT PRE-EXISTING CONDITION","INJURY, POISONING AND PROCEDURAL COMPLICATIONS",1,"SCREENING 1","20-AUG-2013",""],[386,"CDISCPILOT01","701","1302","E06","VERBATIM_1781","BACK PAIN","LOW BACK PAIN","HLT_0115","HLGT_0508","SIGNIFICANT PRE-EXISTING CONDITION","MUSCULOSKELETAL AND CONNECTIVE TISSUE DISORDERS",1,"SCREENING 1","20-AUG-2013",""],[387,"CDISCPILOT01","701","1302","E07","VERBATIM_1532","MYOPIA","MYOPIA","HLT_0282","HLGT_0271","SIGNIFICANT PRE-EXISTING CONDITION","EYE DISORDERS",1,"SCREENING 1","20-AUG-2013",""],[388,"CDISCPILOT01","701","1302","E08","VERBATIM_0391","DEAFNESS","HEARING LOSS","HLT_0234","HLGT_0025","SIGNIFICANT PRE-EXISTING CONDITION","EAR AND LABYRINTH DISORDERS",1,"SCREENING 1","20-AUG-2013",""],[389,"CDISCPILOT01","701","1302","E09","VERBATIM_1631","DENTURE WEARER","DENTURE WEARER","HLT_0246","HLGT_0763","SIGNIFICANT PRE-EXISTING CONDITION","SOCIAL CIRCUMSTANCES",1,"SCREENING 1","20-AUG-2013",""],[390,"CDISCPILOT01","701","1302","E10","VERBATIM_1022","DENTURE WEARER","DENTURE WEARER","HLT_0246","HLGT_0763","SIGNIFICANT PRE-EXISTING CONDITION","SOCIAL CIRCUMSTANCES",1,"SCREENING 1","20-AUG-2013",""],[391,"CDISCPILOT01","701","1302","E11","VERBATIM_0443","CONSTIPATION","CONSTIPATION","HLT_0402","HLGT_0635","SIGNIFICANT PRE-EXISTING CONDITION","GASTROINTESTINAL DISORDERS",1,"SCREENING 1","20-AUG-2013",""],[392,"CDISCPILOT01","701","1302","E12","VERBATIM_1348","BENIGN PROSTATIC HYPERPLASIA","ENLARGED PROSTATE","HLT_0215","HLGT_0568","SIGNIFICANT PRE-EXISTING CONDITION","REPRODUCTIVE SYSTEM AND BREAST DISORDERS",1,"SCREENING 1","20-AUG-2013",""],[393,"CDISCPILOT01","701","1317","","ALZHEIMER'S DISEASE","","","","","PRIMARY DIAGNOSIS","",null,"SCREENING 1","10-MAY-2014","16-SEP-2013"],[394,"CDISCPILOT01","701","1317","","VERBATIM_1716","TONSILLECTOMY","TONSILLECTOMY","HLT_0202","HLGT_0199","HISTORICAL DIAGNOSIS","SURGICAL AND MEDICAL PROCEDURES",null,"SCREENING 1","10-MAY-2014","1951"],[395,"CDISCPILOT01","701","1317","E01","VERBATIM_0267","HAEMORRHOIDS","HEMORRHOIDS","HLT_0681","HLGT_0485","SIGNIFICANT PRE-EXISTING CONDITION","GASTROINTESTINAL DISORDERS",1,"SCREENING 1","10-MAY-2014",""],[396,"CDISCPILOT01","701","1317","E02","VERBATIM_0841","DYSPEPSIA","HEARTBURN","HLT_0244","HLGT_0716","SIGNIFICANT PRE-EXISTING CONDITION","GASTROINTESTINAL DISORDERS",1,"SCREENING 1","10-MAY-2014",""],[397,"CDISCPILOT01","701","1317","E03","VERBATIM_0014","NOCTURIA","NOCTURIA","HLT_0509","HLGT_0605","SIGNIFICANT PRE-EXISTING CONDITION","RENAL AND URINARY DISORDERS",1,"SCREENING 1","10-MAY-2014",""],[398,"CDISCPILOT01","701","1317","E04","VERBATIM_0301","HEADACHE","HEADACHE","HLT_0064","HLGT_0344","SIGNIFICANT PRE-EXISTING CONDITION","NERVOUS SYSTEM DISORDERS",1,"SCREENING 1","10-MAY-2014",""],[399,"CDISCPILOT01","701","1317","E05","VERBATIM_0162","HERPES SIMPLEX","GENITAL HERPES","HLT_0715","HLGT_0438","SIGNIFICANT PRE-EXISTING CONDITION","INFECTIONS AND INFESTATIONS",1,"SCREENING 1","10-MAY-2014",""],[400,"CDISCPILOT01","701","1317","E06","VERBATIM_1257","SKIN NODULE","SKIN NODULE","HLT_0540","HLGT_0334","SIGNIFICANT PRE-EXISTING CONDITION","SKIN AND SUBCUTANEOUS TISSUE DISORDERS",1,"SCREENING 1","10-MAY-2014",""],[401,"CDISCPILOT01","701","1317","E07","VERBATIM_1662","RHEUMATOID ARTHRITIS","RHEUMATOID ARTHRITIS","HLT_0390","HLGT_0743","SIGNIFICANT PRE-EXISTING CONDITION","MUSCULOSKELETAL AND CONNECTIVE TISSUE DISORDERS",1,"SCREENING 1","10-MAY-2014",""],[402,"CDISCPILOT01","701","1317","E08","VERBATIM_0391","DEAFNESS","HEARING LOSS","HLT_0234","HLGT_0025","SIGNIFICANT PRE-EXISTING CONDITION","EAR AND LABYRINTH DISORDERS",1,"SCREENING 1","10-MAY-2014",""],[403,"CDISCPILOT01","701","1317","E09","VERBATIM_1190","MYOPIA","NEARSIGHTED","HLT_0282","HLGT_0271","SIGNIFICANT PRE-EXISTING CONDITION","EYE DISORDERS",1,"SCREENING 1","10-MAY-2014",""],[404,"CDISCPILOT01","701","1317","E10","VERBATIM_1580","TOOTHACHE","TOOTHACHE","HLT_0470","HLGT_0525","SIGNIFICANT PRE-EXISTING CONDITION","GASTROINTESTINAL DISORDERS",1,"SCREENING 1","10-MAY-2014",""],[405,"CDISCPILOT01","701","1324","","ALZHEIMER'S DISEASE","","","","","PRIMARY DIAGNOSIS","",null,"SCREENING 1","16-SEP-2012","11-OCT-2009"],[406,"CDISCPILOT01","701","1324","","VERBATIM_0206","INGUINAL HERNIA","LEFT INGUINAL HERNIA","HLT_0388","HLGT_0368","HISTORICAL DIAGNOSIS","GASTROINTESTINAL DISORDERS",null,"SCREENING 1","16-SEP-2012","2001"],[407,"CDISCPILOT01","701","1324","","VERBATIM_0722","HERNIA REPAIR","HERNIA REPAIR","HLT_0766","HLGT_0696","HISTORICAL DIAGNOSIS","SURGICAL AND MEDICAL PROCEDURES",null,"SCREENING 1","16-SEP-2012","2001"],[408,"CDISCPILOT01","701","1324","","VERBATIM_0809","OSTEOARTHRITIS","OSTEOARTHRITIS","HLT_0247","HLGT_0462","HISTORICAL DIAGNOSIS","MUSCULOSKELETAL AND CONNECTIVE TISSUE DISORDERS",null,"SCREENING 1","16-SEP-2012","2005"],[409,"CDISCPILOT01","701","1324","","VERBATIM_1583","BACK PAIN","BACK PAIN","HLT_0115","HLGT_0508","HISTORICAL DIAGNOSIS","MUSCULOSKELETAL AND CONNECTIVE TISSUE DISORDERS",null,"SCREENING 1","16-SEP-2012","2005"],[410,"CDISCPILOT01","701","1324","","VERBATIM_1640","HIP ARTHROPLASTY","HIP REPLACEMENT","HLT_0709","HLGT_0449","HISTORICAL DIAGNOSIS","SURGICAL AND MEDICAL PROCEDURES",null,"SCREENING 1","16-SEP-2012","2005"],[411,"CDISCPILOT01","701","1324","","VERBATIM_1716","TONSILLECTOMY","TONSILLECTOMY","HLT_0202","HLGT_0199","HISTORICAL DIAGNOSIS","SURGICAL AND MEDICAL PROCEDURES",null,"SCREENING 1","16-SEP-2012","1944"],[412,"CDISCPILOT01","701","1324","E01","VERBATIM_1065","TINNITUS","TINNITUS","HLT_0570","HLGT_0180","SIGNIFICANT PRE-EXISTING CONDITION","EAR AND LABYRINTH DISORDERS",1,"SCREENING 1","16-SEP-2012",""],[413,"CDISCPILOT01","701","1324","E02","VERBATIM_1683","HYPERMETROPIA","HYPEROPIA","HLT_0546","HLGT_0646","SIGNIFICANT PRE-EXISTING CONDITION","EYE DISORDERS",2,"SCREENING 1","16-SEP-2012",""],[414,"CDISCPILOT01","701","1324","E03","VERBATIM_0884","CATARACT","CATARACTS","HLT_0090","HLGT_0498","SIGNIFICANT PRE-EXISTING CONDITION","EYE DISORDERS",1,"SCREENING 1","16-SEP-2012",""],[415,"CDISCPILOT01","701","1341","","ALZHEIMER'S DISEASE","","","","","PRIMARY DIAGNOSIS","",null,"SCREENING 1","22-DEC-2012","05-JUN-2006"],[416,"CDISCPILOT01","701","1341","","VERBATIM_0433","RHEUMATIC FEVER","RHEUMATIC FEVER","HLT_0366","HLGT_0428","HISTORICAL DIAGNOSIS","MUSCULOSKELETAL AND CONNECTIVE TISSUE DISORDERS",null,"SCREENING 1","22-DEC-2012","1966"],[417,"CDISCPILOT01","701","1341","","VERBATIM_0919","PNEUMONIA","PNEUMONIA","HLT_0251","HLGT_0671","HISTORICAL DIAGNOSIS","INFECTIONS AND INFESTATIONS",null,"SCREENING 1","22-DEC-2012","1983"],[418,"CDISCPILOT01","701","1341","","VERBATIM_1302","HEAD INJURY","HEAD INJURY","HLT_0201","HLGT_0554","HISTORICAL DIAGNOSIS","INJURY, POISONING AND PROCEDURAL COMPLICATIONS",null,"SCREENING 1","22-DEC-2012","2003"],[419,"CDISCPILOT01","701","1341","","VERBATIM_1505","NERVE COMPRESSION","NERVE COMPRESSION","HLT_0463","HLGT_0502","HISTORICAL DIAGNOSIS","NERVOUS SYSTEM DISORDERS",null,"SCREENING 1","22-DEC-2012","1990"],[420,"CDISCPILOT01","701","1341","","VERBATIM_1716","TONSILLECTOMY","TONSILLECTOMY","HLT_0202","HLGT_0199","HISTORICAL DIAGNOSIS","SURGICAL AND MEDICAL PROCEDURES",null,"SCREENING 1","22-DEC-2012","1964"],[421,"CDISCPILOT01","701","1341","E01","VERBATIM_0342","HYPERTENSION","HYPERTENSION","HLT_0228","HLGT_0476","SIGNIFICANT PRE-EXISTING CONDITION","VASCULAR DISORDERS",1,"SCREENING 1","22-DEC-2012",""],[422,"CDISCPILOT01","701","1341","E02","VERBATIM_0182","OEDEMA PERIPHERAL","EDEMA HANDS","HLT_0661","HLGT_0137","SIGNIFICANT PRE-EXISTING CONDITION","GENERAL DISORDERS AND ADMINISTRATION SITE CONDITIONS",1,"SCREENING 1","22-DEC-2012",""],[423,"CDISCPILOT01","701","1341","E03","VERBATIM_1236","COUGH","COUGH NONPRODUCTIVE","HLT_0701","HLGT_0280","SIGNIFICANT PRE-EXISTING CONDITION","RESPIRATORY, THORACIC AND MEDIASTINAL DISORDERS",1,"SCREENING 1","22-DEC-2012",""],[424,"CDISCPILOT01","701","1341","E04","VERBATIM_1049","DIZZINESS","LIGHTHEADEDNESS","HLT_0619","HLGT_0751","SIGNIFICANT PRE-EXISTING CONDITION","NERVOUS SYSTEM DISORDERS",1,"SCREENING 1","22-DEC-2012",""],[425,"CDISCPILOT01","701","1341","E05","VERBATIM_0119","POLYARTHRITIS","POLYARTHRITIS","HLT_0134","HLGT_0167","SIGNIFICANT PRE-EXISTING CONDITION","MUSCULOSKELETAL AND CONNECTIVE TISSUE DISORDERS",1,"SCREENING 1","22-DEC-2012",""],[426,"CDISCPILOT01","701","1341","E06","VERBATIM_1683","HYPERMETROPIA","HYPEROPIA","HLT_0546","HLGT_0646","SIGNIFICANT PRE-EXISTING CONDITION","EYE DISORDERS",1,"SCREENING 1","22-DEC-2012",""],[427,"CDISCPILOT01","701","1341","E07","VERBATIM_1592","DEPRESSION","DEPRESSION","HLT_0167","HLGT_0582","SIGNIFICANT PRE-EXISTING CONDITION","PSYCHIATRIC DISORDERS",1,"SCREENING 1","22-DEC-2012",""],[428,"CDISCPILOT01","701","1341","E08","VERBATIM_0676","ARTHRITIS","ARTHRITIS","HLT_0019","HLGT_0587","SIGNIFICANT PRE-EXISTING CONDITION","MUSCULOSKELETAL AND CONNECTIVE TISSUE DISORDERS",1,"SCREENING 1","22-DEC-2012",""],[429,"CDISCPILOT01","701","1345","","ALZHEIMER'S DISEASE","","","","","PRIMARY DIAGNOSIS","",null,"SCREENING 1","01-OCT-2013","05-NOV-2010"],[430,"CDISCPILOT01","701","1345","","VERBATIM_0837","EAR PAIN","EAR PAIN","HLT_0631","HLGT_0432","HISTORICAL DIAGNOSIS","EAR AND LABYRINTH DISORDERS",null,"SCREENING 1","01-OCT-2013","2012"],[431,"CDISCPILOT01","701","1345","","VERBATIM_0841","DYSPEPSIA","HEARTBURN","HLT_0244","HLGT_0716","HISTORICAL DIAGNOSIS","GASTROINTESTINAL DISORDERS",null,"SCREENING 1","01-OCT-2013","1983"],[432,"CDISCPILOT01","701","1345","","VERBATIM_0919","PNEUMONIA","PNEUMONIA","HLT_0251","HLGT_0671","HISTORICAL DIAGNOSIS","INFECTIONS AND INFESTATIONS",null,"SCREENING 1","01-OCT-2013","1952"],[433,"CDISCPILOT01","701","1345","","VERBATIM_1583","BACK PAIN","BACK PAIN","HLT_0115","HLGT_0508","HISTORICAL DIAGNOSIS","MUSCULOSKELETAL AND CONNECTIVE TISSUE DISORDERS",null,"SCREENING 1","01-OCT-2013","22-MAR-2010"],[434,"CDISCPILOT01","701","1345","","VERBATIM_1716","TONSILLECTOMY","TONSILLECTOMY","HLT_0202","HLGT_0199","HISTORICAL DIAGNOSIS","SURGICAL AND MEDICAL PROCEDURES",null,"SCREENING 1","01-OCT-2013","1957"],[435,"CDISCPILOT01","701","1345","","VERBATIM_1769","SINUSITIS","SINUSITIS","HLT_0262","HLGT_0249","HISTORICAL DIAGNOSIS","INFECTIONS AND INFESTATIONS",null,"SCREENING 1","01-OCT-2013","22-JUN-1963"],[436,"CDISCPILOT01","701","1345","","VERBATIM_1800","NASOPHARYNGEAL CANCER","MALIGNANT NASOPHARYNGEAL NEOPLASM","HLT_0568","HLGT_0707","HISTORICAL DIAGNOSIS","NEOPLASMS BENIGN, MALIGNANT AND UNSPECIFIED (INCL CYSTS AND POLYPS)",null,"SCREENING 1","01-OCT-2013","1972"],[437,"CDISCPILOT01","701","1345","E01","VERBATIM_0507","PRESBYOPIA","PRESBYOPIA","HLT_0230","HLGT_0759","SIGNIFICANT PRE-EXISTING CONDITION","EYE DISORDERS",1,"SCREENING 1","01-OCT-2013",""],[438,"CDISCPILOT01","701","1360","","ALZHEIMER'S DISEASE","","","","","PRIMARY DIAGNOSIS","",null,"SCREENING 1","24-JUL-2013","02-DEC-2008"],[439,"CDISCPILOT01","701","1360","","VERBATIM_0898","HAND FRACTURE","HAND FRACTURE","HLT_0157","HLGT_0169","HISTORICAL DIAGNOSIS","INJURY, POISONING AND PROCEDURAL COMPLICATIONS",null,"SCREENING 1","24-JUL-2013","1986"],[440,"CDISCPILOT01","701","1360","","VERBATIM_0944","LARGE INTESTINAL ULCER","COLON ULCER","HLT_0428","HLGT_0160","HISTORICAL DIAGNOSIS","GASTROINTESTINAL DISORDERS",null,"SCREENING 1","24-JUL-2013","1975"],[441,"CDISCPILOT01","701","1360","","VERBATIM_1000","OESOPHAGEAL OPERATION","ESOPHAGEAL OPERATION","HLT_0425","HLGT_0425","HISTORICAL DIAGNOSIS","SURGICAL AND MEDICAL PROCEDURES",null,"SCREENING 1","24-JUL-2013","2011"],[442,"CDISCPILOT01","701","1360","","VERBATIM_1187","HAEMORRHOID OPERATION","HEMORRHOIDECTOMY","HLT_0300","HLGT_0468","HISTORICAL DIAGNOSIS","SURGICAL AND MEDICAL PROCEDURES",null,"SCREENING 1","24-JUL-2013","1976"],[443,"CDISCPILOT01","701","1360","","VERBATIM_1594","PLEURISY","PLEURISY","HLT_0268","HLGT_0356","HISTORICAL DIAGNOSIS","RESPIRATORY, THORACIC AND MEDIASTINAL DISORDERS",null,"SCREENING 1","24-JUL-2013","2011"],[444,"CDISCPILOT01","701","1360","","VERBATIM_1716","TONSILLECTOMY","TONSILLECTOMY","HLT_0202","HLGT_0199","HISTORICAL DIAGNOSIS","SURGICAL AND MEDICAL PROCEDURES",null,"SCREENING 1","24-JUL-2013","1965"],[445,"CDISCPILOT01","701","1360","","VERBATIM_1753","DYSPNOEA","BREATH SHORTNESS","HLT_0296","HLGT_0255","HISTORICAL DIAGNOSIS","RESPIRATORY, THORACIC AND MEDIASTINAL DISORDERS",null,"SCREENING 1","24-JUL-2013","2010"],[446,"CDISCPILOT01","701","1360","E01","VERBATIM_0929","HEADACHE","HEADACHE","HLT_0064","HLGT_0344","SIGNIFICANT PRE-EXISTING CONDITION","NERVOUS SYSTEM DISORDERS",1,"SCREENING 1","24-JUL-2013",""],[447,"CDISCPILOT01","701","1360","E02","VERBATIM_0512","PSORIASIS","PSORIASIS","HLT_0740","HLGT_0038","SIGNIFICANT PRE-EXISTING CONDITION","SKIN AND SUBCUTANEOUS TISSUE DISORDERS",1,"SCREENING 1","24-JUL-2013",""],[448,"CDISCPILOT01","701","1360","E03","VERBATIM_1048","ARTHRITIS","ARTHRITIS","HLT_0019","HLGT_0587","SIGNIFICANT PRE-EXISTING CONDITION","MUSCULOSKELETAL AND CONNECTIVE TISSUE DISORDERS",2,"SCREENING 1","24-JUL-2013",""],[449,"CDISCPILOT01","701","1360","E04","VERBATIM_1026","JOINT SWELLING","JOINT SWELLING","HLT_0171","HLGT_0417","SIGNIFICANT PRE-EXISTING CONDITION","MUSCULOSKELETAL AND CONNECTIVE TISSUE DISORDERS",1,"SCREENING 1","24-JUL-2013",""],[450,"CDISCPILOT01","701","1360","E05","VERBATIM_0845","TINNITUS","TINNITUS","HLT_0570","HLGT_0180","SIGNIFICANT PRE-EXISTING CONDITION","EAR AND LABYRINTH DISORDERS",1,"SCREENING 1","24-JUL-2013",""],[451,"CDISCPILOT01","701","1360","E06","VERBATIM_1759","HYPERMETROPIA","HYPEROPIA","HLT_0546","HLGT_0646","SIGNIFICANT PRE-EXISTING CONDITION","EYE DISORDERS",1,"SCREENING 1","24-JUL-2013",""],[452,"CDISCPILOT01","701","1360","E07","VERBATIM_0611","DENTURE WEARER","DENTURE WEARER","HLT_0246","HLGT_0763","SIGNIFICANT PRE-EXISTING CONDITION","SOCIAL CIRCUMSTANCES",1,"SCREENING 1","24-JUL-2013",""],[453,"CDISCPILOT01","701","1363","","ALZHEIMER'S DISEASE","","","","","PRIMARY DIAGNOSIS","",null,"SCREENING 1","20-MAY-2013","20-OCT-2005"],[454,"CDISCPILOT01","701","1363","","VERBATIM_0030","ARRHYTHMIA","ARRHYTHMIA","HLT_0145","HLGT_0291","HISTORICAL DIAGNOSIS","CARDIAC DISORDERS",null,"SCREENING 1","20-MAY-2013","2011"],[455,"CDISCPILOT01","701","1363","","VERBATIM_0302","LOSS OF CONSCIOUSNESS","CONSCIOUSNESS LOSS","HLT_0529","HLGT_0595","HISTORICAL DIAGNOSIS","NERVOUS SYSTEM DISORDERS",null,"SCREENING 1","20-MAY-2013","2007"],[456,"CDISCPILOT01","701","1363","","VERBATIM_0336","ECZEMA","ECZEMA","HLT_0747","HLGT_0748","HISTORICAL DIAGNOSIS","SKIN AND SUBCUTANEOUS TISSUE DISORDERS",null,"SCREENING 1","20-MAY-2013","2012"],[457,"CDISCPILOT01","701","1363","","VERBATIM_0987","ARTHRALGIA","PAIN IN HIP","HLT_0375","HLGT_0610","HISTORICAL DIAGNOSIS","MUSCULOSKELETAL AND CONNECTIVE TISSUE DISORDERS",null,"SCREENING 1","20-MAY-2013","2012"],[458,"CDISCPILOT01","701","1363","","VERBATIM_1049","DIZZINESS","LIGHTHEADEDNESS","HLT_0619","HLGT_0751","HISTORICAL DIAGNOSIS","NERVOUS SYSTEM DISORDERS",null,"SCREENING 1","20-MAY-2013","2012"],[459,"CDISCPILOT01","701","1363","","VERBATIM_1405","BACK PAIN","UPPER BACK PAIN","HLT_0115","HLGT_0508","HISTORICAL DIAGNOSIS","MUSCULOSKELETAL AND CONNECTIVE TISSUE DISORDERS",null,"SCREENING 1","20-MAY-2013","2011"],[460,"CDISCPILOT01","701","1363","E01","VERBATIM_0800","DYSPEPSIA","INDIGESTION","HLT_0244","HLGT_0716","SIGNIFICANT PRE-EXISTING CONDITION","GASTROINTESTINAL DISORDERS",1,"SCREENING 1","20-MAY-2013",""],[461,"CDISCPILOT01","701","1363","E02","VERBATIM_0443","CONSTIPATION","CONSTIPATION","HLT_0402","HLGT_0635","SIGNIFICANT PRE-EXISTING CONDITION","GASTROINTESTINAL DISORDERS",1,"SCREENING 1","20-MAY-2013",""],[462,"CDISCPILOT01","701","1363","E03","VERBATIM_0301","HEADACHE","HEADACHE","HLT_0064","HLGT_0344","SIGNIFICANT PRE-EXISTING CONDITION","NERVOUS SYSTEM DISORDERS",1,"SCREENING 1","20-MAY-2013",""],[463,"CDISCPILOT01","701","1363","E04","VERBATIM_0120","ANAEMIA","ANEMIA","HLT_0378","HLGT_0230","SIGNIFICANT PRE-EXISTING CONDITION","BLOOD AND LYMPHATIC SYSTEM DISORDERS",1,"SCREENING 1","20-MAY-2013",""],[464,"CDISCPILOT01","701","1363","E05","VERBATIM_1532","MYOPIA","MYOPIA","HLT_0282","HLGT_0271","SIGNIFICANT PRE-EXISTING CONDITION","EYE DISORDERS",1,"SCREENING 1","20-MAY-2013",""],[465,"CDISCPILOT01","701","1363","E06","VERBATIM_0391","DEAFNESS","HEARING LOSS","HLT_0234","HLGT_0025","SIGNIFICANT PRE-EXISTING CONDITION","EAR AND LABYRINTH DISORDERS",1,"SCREENING 1","20-MAY-2013",""],[466,"CDISCPILOT01","701","1363","E07","VERBATIM_1460","SHOULDER PAIN","SHOULDER PAIN","HLT_0527","HLGT_0288","SIGNIFICANT PRE-EXISTING CONDITION","MUSCULOSKELETAL AND CONNECTIVE TISSUE DISORDERS",1,"SCREENING 1","20-MAY-2013",""],[467,"CDISCPILOT01","701","1363","E08","VERBATIM_0094","ARTHRITIS","ARTHRITIS","HLT_0019","HLGT_0587","SIGNIFICANT PRE-EXISTING CONDITION","MUSCULOSKELETAL AND CONNECTIVE TISSUE DISORDERS",1,"SCREENING 1","20-MAY-2013",""],[468,"CDISCPILOT01","701","1383","","ALZHEIMER'S DISEASE","","","","","PRIMARY DIAGNOSIS","",null,"SCREENING 1","22-JAN-2013","20-AUG-2006"],[469,"CDISCPILOT01","701","1383","","VERBATIM_0229","MASTECTOMY","MASTECTOMY","HLT_0729","HLGT_0669","HISTORICAL DIAGNOSIS","SURGICAL AND MEDICAL PROCEDURES",null,"SCREENING 1","22-JAN-2013","1966"],[470,"CDISCPILOT01","701","1383","","VERBATIM_0531","CAESAREAN SECTION","CESAREAN SECTION","HLT_0506","HLGT_0766","HISTORICAL DIAGNOSIS","SURGICAL AND MEDICAL PROCEDURES",null,"SCREENING 1","22-JAN-2013","1969"],[471,"CDISCPILOT01","701","1383","","VERBATIM_0531","CAESAREAN SECTION","CESAREAN SECTION","HLT_0506","HLGT_0766","HISTORICAL DIAGNOSIS","SURGICAL AND MEDICAL PROCEDURES",null,"SCREENING 1","22-JAN-2013","1972"],[472,"CDISCPILOT01","701","1383","","VERBATIM_0936","HYSTERECTOMY","HYSTERECTOMY","HLT_0675","HLGT_0657","HISTORICAL DIAGNOSIS","SURGICAL AND MEDICAL PROCEDURES",null,"SCREENING 1","22-JAN-2013","1977"],[473,"CDISCPILOT01","701","1383","","VERBATIM_1187","HAEMORRHOID OPERATION","HEMORRHOIDECTOMY","HLT_0300","HLGT_0468","HISTORICAL DIAGNOSIS","SURGICAL AND MEDICAL PROCEDURES",null,"SCREENING 1","22-JAN-2013","1982"],[474,"CDISCPILOT01","701","1383","","VERBATIM_1187","HAEMORRHOID OPERATION","HEMORRHOIDECTOMY","HLT_0300","HLGT_0468","HISTORICAL DIAGNOSIS","SURGICAL AND MEDICAL PROCEDURES",null,"SCREENING 1","22-JAN-2013","1988"],[475,"CDISCPILOT01","701","1383","","VERBATIM_1555","PYELONEPHRITIS","PYELONEPHRITIS","HLT_0307","HLGT_0040","HISTORICAL DIAGNOSIS","INFECTIONS AND INFESTATIONS",null,"SCREENING 1","22-JAN-2013","1988"],[476,"CDISCPILOT01","701","1383","","VERBATIM_1769","SINUSITIS","SINUSITIS","HLT_0262","HLGT_0249","HISTORICAL DIAGNOSIS","INFECTIONS AND INFESTATIONS",null,"SCREENING 1","22-JAN-2013","2006"],[477,"CDISCPILOT01","701","1383","","VERBATIM_1775","APPENDICECTOMY","APPENDECTOMY","HLT_0707","HLGT_0363","HISTORICAL DIAGNOSIS","SURGICAL AND MEDICAL PROCEDURES",null,"SCREENING 1","22-JAN-2013","1969"],[478,"CDISCPILOT01","701","1383","E01","VERBATIM_0443","CONSTIPATION","CONSTIPATION","HLT_0402","HLGT_0635","SIGNIFICANT PRE-EXISTING CONDITION","GASTROINTESTINAL DISORDERS",1,"SCREENING 1","22-JAN-2013",""],[479,"CDISCPILOT01","701","1383","E02","VERBATIM_1065","TINNITUS","TINNITUS","HLT_0570","HLGT_0180","SIGNIFICANT PRE-EXISTING CONDITION","EAR AND LABYRINTH DISORDERS",1,"SCREENING 1","22-JAN-2013",""],[480,"CDISCPILOT01","701","1383","E03","VERBATIM_1683","HYPERMETROPIA","HYPEROPIA","HLT_0546","HLGT_0646","SIGNIFICANT PRE-EXISTING CONDITION","EYE DISORDERS",1,"SCREENING 1","22-JAN-2013",""],[481,"CDISCPILOT01","701","1387","","ALZHEIMER'S DISEASE","","","","","PRIMARY DIAGNOSIS","",null,"SCREENING 1","23-FEB-2014","17-AUG-2003"],[482,"CDISCPILOT01","701","1387","","VERBATIM_0919","PNEUMONIA","PNEUMONIA","HLT_0251","HLGT_0671","HISTORICAL DIAGNOSIS","INFECTIONS AND INFESTATIONS",null,"SCREENING 1","23-FEB-2014","1940"],[483,"CDISCPILOT01","701","1387","","VERBATIM_0951","BASAL CELL CARCINOMA","BASAL CELL CARCINOMA","HLT_0332","HLGT_0328","HISTORICAL DIAGNOSIS","NEOPLASMS BENIGN, MALIGNANT AND UNSPECIFIED (INCL CYSTS AND POLYPS)",null,"SCREENING 1","23-FEB-2014","MAR-2011"],[484,"CDISCPILOT01","701","1387","","VERBATIM_0982","DIZZINESS","FELT FAINT","HLT_0619","HLGT_0751","HISTORICAL DIAGNOSIS","NERVOUS SYSTEM DISORDERS",null,"SCREENING 1","23-FEB-2014","2011"],[485,"CDISCPILOT01","701","1387","","VERBATIM_1716","TONSILLECTOMY","TONSILLECTOMY","HLT_0202","HLGT_0199","HISTORICAL DIAGNOSIS","SURGICAL AND MEDICAL PROCEDURES",null,"SCREENING 1","23-FEB-2014","1936"],[486,"CDISCPILOT01","701","1387","","VERBATIM_1738","TOOTH EXTRACTION","TOOTH EXTRACTION","HLT_0209","HLGT_0762","HISTORICAL DIAGNOSIS","SURGICAL AND MEDICAL PROCEDURES",null,"SCREENING 1","23-FEB-2014","2003"],[487,"CDISCPILOT01","701","1387","E01","VERBATIM_1392","OEDEMA PERIPHERAL","ANKLE EDEMA","HLT_0661","HLGT_0137","SIGNIFICANT PRE-EXISTING CONDITION","GENERAL DISORDERS AND ADMINISTRATION SITE CONDITIONS",1,"SCREENING 1","23-FEB-2014",""],[488,"CDISCPILOT01","701","1387","E02","VERBATIM_0958","DIZZINESS POSTURAL","DIZZINESS POSTURAL","HLT_0214","HLGT_0070","SIGNIFICANT PRE-EXISTING CONDITION","NERVOUS SYSTEM DISORDERS",1,"SCREENING 1","23-FEB-2014",""],[489,"CDISCPILOT01","701","1387","E03","VERBATIM_1732","HYPOAESTHESIA","NUMBNESS IN HAND","HLT_0014","HLGT_0528","SIGNIFICANT PRE-EXISTING CONDITION","NERVOUS SYSTEM DISORDERS",1,"SCREENING 1","23-FEB-2014",""],[490,"CDISCPILOT01","701","1387","E04","VERBATIM_0261","POLYARTHRITIS","POLYARTHRITIS","HLT_0134","HLGT_0167","SIGNIFICANT PRE-EXISTING CONDITION","MUSCULOSKELETAL AND CONNECTIVE TISSUE DISORDERS",1,"SCREENING 1","23-FEB-2014",""],[491,"CDISCPILOT01","701","1387","E05","VERBATIM_1340","CATARACT","CATARACTS","HLT_0090","HLGT_0498","SIGNIFICANT PRE-EXISTING CONDITION","EYE DISORDERS",1,"SCREENING 1","23-FEB-2014",""],[492,"CDISCPILOT01","701","1387","E06","VERBATIM_0827","RHINORRHOEA","SNIFFLES","HLT_0635","HLGT_0460","SIGNIFICANT PRE-EXISTING CONDITION","RESPIRATORY, THORACIC AND MEDIASTINAL DISORDERS",1,"SCREENING 1","23-FEB-2014",""],[493,"CDISCPILOT01","701","1387","E07","VERBATIM_1022","DENTURE WEARER","DENTURE WEARER","HLT_0246","HLGT_0763","SIGNIFICANT PRE-EXISTING CONDITION","SOCIAL CIRCUMSTANCES",1,"SCREENING 1","23-FEB-2014",""],[494,"CDISCPILOT01","701","1392","","ALZHEIMER'S DISEASE","","","","","PRIMARY DIAGNOSIS","",null,"SCREENING 1","17-OCT-2012","25-APR-2010"],[495,"CDISCPILOT01","701","1392","","VERBATIM_0211","TRANSURETHRAL PROSTATECTOMY","TRANSURETHRAL PROSTATECTOMY","HLT_0551","HLGT_0320","HISTORICAL DIAGNOSIS","SURGICAL AND MEDICAL PROCEDURES",null,"SCREENING 1","17-OCT-2012","28-DEC-2011"],[496,"CDISCPILOT01","701","1392","","VERBATIM_0626","TOOTH EXTRACTION","TOOTH EXTRACTION","HLT_0209","HLGT_0762","HISTORICAL DIAGNOSIS","SURGICAL AND MEDICAL PROCEDURES",null,"SCREENING 1","17-OCT-2012","2001"],[497,"CDISCPILOT01","701","1392","E01","VERBATIM_0342","HYPERTENSION","HYPERTENSION","HLT_0228","HLGT_0476","SIGNIFICANT PRE-EXISTING CONDITION","VASCULAR DISORDERS",1,"SCREENING 1","17-OCT-2012",""],[498,"CDISCPILOT01","701","1392","E02","VERBATIM_1751","ASTIGMATISM","ASTIGMATISM","HLT_0494","HLGT_0369","SIGNIFICANT PRE-EXISTING CONDITION","EYE DISORDERS",1,"SCREENING 1","17-OCT-2012",""],[499,"CDISCPILOT01","701","1392","E03","VERBATIM_1312","DENTURE WEARER","DENTURE WEARER","HLT_0246","HLGT_0763","SIGNIFICANT PRE-EXISTING CONDITION","SOCIAL CIRCUMSTANCES",1,"SCREENING 1","17-OCT-2012",""],[500,"CDISCPILOT01","701","1415","","ALZHEIMER'S DISEASE","","","","","PRIMARY DIAGNOSIS","",null,"SCREENING 1","15-SEP-2013","13-JUN-1998"],[501,"CDISCPILOT01","701","1415","","VERBATIM_0048","PAIN TRAUMA ACTIVATED","PAIN TRAUMA ACTIVATED","HLT_0579","HLGT_0732","HISTORICAL DIAGNOSIS","INJURY, POISONING AND PROCEDURAL COMPLICATIONS",null,"SCREENING 1","15-SEP-2013","10-AUG-2013"],[502,"CDISCPILOT01","701","1415","","VERBATIM_0187","BASAL CELL CARCINOMA","BASAL CELL CARCINOMA","HLT_0332","HLGT_0328","HISTORICAL DIAGNOSIS","NEOPLASMS BENIGN, MALIGNANT AND UNSPECIFIED (INCL CYSTS AND POLYPS)",null,"SCREENING 1","15-SEP-2013","13-JUN-2013"],[503,"CDISCPILOT01","701","1415","","VERBATIM_0472","INGUINAL HERNIA","INGUINAL HERNIA","HLT_0388","HLGT_0368","HISTORICAL DIAGNOSIS","GASTROINTESTINAL DISORDERS",null,"SCREENING 1","15-SEP-2013","2008"],[504,"CDISCPILOT01","701","1415","","VERBATIM_0767","CONTUSION","BRUISING OF ARM","HLT_0713","HLGT_0381","HISTORICAL DIAGNOSIS","INJURY, POISONING AND PROCEDURAL COMPLICATIONS",null,"SCREENING 1","15-SEP-2013","10-AUG-2013"],[505,"CDISCPILOT01","701","1415","","VERBATIM_0975","SKIN LACERATION","LACERATION OF ARM","HLT_0075","HLGT_0118","HISTORICAL DIAGNOSIS","INJURY, POISONING AND PROCEDURAL COMPLICATIONS",null,"SCREENING 1","15-SEP-2013","10-AUG-2013"],[506,"CDISCPILOT01","701","1415","","VERBATIM_1023","DIVERTICULUM","DIVERTICULOSIS","HLT_0069","HLGT_0141","HISTORICAL DIAGNOSIS","GASTROINTESTINAL DISORDERS",null,"SCREENING 1","15-SEP-2013","2012"],[507,"CDISCPILOT01","701","1415","","VERBATIM_1252","NASOPHARYNGITIS","COLD","HLT_0036","HLGT_0709","HISTORICAL DIAGNOSIS","INFECTIONS AND INFESTATIONS",null,"SCREENING 1","15-SEP-2013","22-AUG-2013"],[508,"CDISCPILOT01","701","1415","","VERBATIM_1284","OTITIS EXTERNA","INFECTION OF THE OUTER EAR","HLT_0673","HLGT_0404","HISTORICAL DIAGNOSIS","INFECTIONS AND INFESTATIONS",null,"SCREENING 1","15-SEP-2013","23-JAN-2012"],[509,"CDISCPILOT01","701","1415","","VERBATIM_1334","MIGRAINE","MIGRAINE","HLT_0547","HLGT_0317","HISTORICAL DIAGNOSIS","NERVOUS SYSTEM DISORDERS",null,"SCREENING 1","15-SEP-2013","1944"],[510,"CDISCPILOT01","701","1415","","VERBATIM_1548","GLUCOSE TOLERANCE IMPAIRED","BORDERLINE DIABETES","HLT_0063","HLGT_0286","HISTORICAL DIAGNOSIS","METABOLISM AND NUTRITION DISORDERS",null,"SCREENING 1","15-SEP-2013","2010"],[511,"CDISCPILOT01","701","1415","","VERBATIM_1638","DYSPNOEA","BREATH SHORTNESS","HLT_0296","HLGT_0255","HISTORICAL DIAGNOSIS","RESPIRATORY, THORACIC AND MEDIASTINAL DISORDERS",null,"SCREENING 1","15-SEP-2013","1986"],[512,"CDISCPILOT01","701","1415","","VERBATIM_1716","TONSILLECTOMY","TONSILLECTOMY","HLT_0202","HLGT_0199","HISTORICAL DIAGNOSIS","SURGICAL AND MEDICAL PROCEDURES",null,"SCREENING 1","15-SEP-2013","1940"],[513,"CDISCPILOT01","701","1415","E01","VERBATIM_1296","DYSPNOEA EXERTIONAL","DYSPNEA EXERTIONAL","HLT_0465","HLGT_0475","SIGNIFICANT PRE-EXISTING CONDITION","RESPIRATORY, THORACIC AND MEDIASTINAL DISORDERS",1,"SCREENING 1","15-SEP-2013",""],[514,"CDISCPILOT01","701","1415","E02","VERBATIM_0929","HEADACHE","HEADACHE","HLT_0064","HLGT_0344","SIGNIFICANT PRE-EXISTING CONDITION","NERVOUS SYSTEM DISORDERS",1,"SCREENING 1","15-SEP-2013",""],[515,"CDISCPILOT01","701","1415","E03","VERBATIM_1311","PARAESTHESIA","PARESTHESIA HAND","HLT_0481","HLGT_0534","SIGNIFICANT PRE-EXISTING CONDITION","NERVOUS SYSTEM DISORDERS",1,"SCREENING 1","15-SEP-2013",""],[516,"CDISCPILOT01","701","1415","E04","VERBATIM_1461","RHEUMATOID ARTHRITIS","ARTHRITIS RHEUMATOID","HLT_0390","HLGT_0743","SIGNIFICANT PRE-EXISTING CONDITION","MUSCULOSKELETAL AND CONNECTIVE TISSUE DISORDERS",1,"SCREENING 1","15-SEP-2013",""],[517,"CDISCPILOT01","701","1415","E05","VERBATIM_1355","BUNION","BUNION","HLT_0325","HLGT_0256","SIGNIFICANT PRE-EXISTING CONDITION","MUSCULOSKELETAL AND CONNECTIVE TISSUE DISORDERS",1,"SCREENING 1","15-SEP-2013",""],[518,"CDISCPILOT01","701","1415","E06","VERBATIM_1683","HYPERMETROPIA","HYPEROPIA","HLT_0546","HLGT_0646","SIGNIFICANT PRE-EXISTING CONDITION","EYE DISORDERS",1,"SCREENING 1","15-SEP-2013",""],[519,"CDISCPILOT01","701","1415","E07","VERBATIM_1530","MACULAR DEGENERATION","MACULAR DEGENERATION","HLT_0401","HLGT_0370","SIGNIFICANT PRE-EXISTING CONDITION","EYE DISORDERS",1,"SCREENING 1","15-SEP-2013",""],[520,"CDISCPILOT01","701","1415","E08","VERBATIM_0524","EPISTAXIS","EPISTAXIS","HLT_0386","HLGT_0577","SIGNIFICANT PRE-EXISTING CONDITION","RESPIRATORY, THORACIC AND MEDIASTINAL DISORDERS",1,"SCREENING 1","15-SEP-2013",""],[521,"CDISCPILOT01","701","1429","","ALZHEIMER'S DISEASE","","","","","PRIMARY DIAGNOSIS","",null,"SCREENING 1","25-FEB-2013","17-JUN-2008"],[522,"CDISCPILOT01","701","1429","","VERBATIM_0267","HAEMORRHOIDS","HEMORRHOIDS","HLT_0681","HLGT_0485","HISTORICAL DIAGNOSIS","GASTROINTESTINAL DISORDERS",null,"SCREENING 1","25-FEB-2013","2009"],[523,"CDISCPILOT01","701","1429","E01","VERBATIM_0929","HEADACHE","HEADACHE","HLT_0064","HLGT_0344","SIGNIFICANT PRE-EXISTING CONDITION","NERVOUS SYSTEM DISORDERS",1,"SCREENING 1","25-FEB-2013",""],[524,"CDISCPILOT01","701","1429","E02","VERBATIM_1604","BENIGN NEOPLASM OF EYE","BENIGN NEOPLASM OF EYE","HLT_0038","HLGT_0014","SIGNIFICANT PRE-EXISTING CONDITION","NEOPLASMS BENIGN, MALIGNANT AND UNSPECIFIED (INCL CYSTS AND POLYPS)",2,"SCREENING 1","25-FEB-2013",""],[525,"CDISCPILOT01","701","1440","","ALZHEIMER'S DISEASE","","","","","PRIMARY DIAGNOSIS","",null,"SCREENING 1","24-JUL-2013","07-APR-2011"],[526,"CDISCPILOT01","701","1440","","VERBATIM_0117","CERVICAL VERTEBRAL FRACTURE","CERVICAL VERTEBRAL FRACTURE","HLT_0577","HLGT_0777","HISTORICAL DIAGNOSIS","INJURY, POISONING AND PROCEDURAL COMPLICATIONS",null,"SCREENING 1","24-JUL-2013","1995"],[527,"CDISCPILOT01","701","1440","","VERBATIM_0293","WEIGHT DECREASED","WEIGHT LOSS","HLT_0158","HLGT_0778","HISTORICAL DIAGNOSIS","INVESTIGATIONS",null,"SCREENING 1","24-JUL-2013","MAY-2013"],[528,"CDISCPILOT01","701","1440","","VERBATIM_1147","HEMIPLEGIA","HEMIPLEGIA (LEFT)","HLT_0099","HLGT_0678","HISTORICAL DIAGNOSIS","NERVOUS SYSTEM DISORDERS",null,"SCREENING 1","24-JUL-2013","1995"],[529,"CDISCPILOT01","701","1440","","VERBATIM_1237","LOSS OF CONSCIOUSNESS","LOSS OF CONSCIOUSNESS","HLT_0529","HLGT_0595","HISTORICAL DIAGNOSIS","NERVOUS SYSTEM DISORDERS",null,"SCREENING 1","24-JUL-2013","1995"],[530,"CDISCPILOT01","701","1440","","VERBATIM_1654","SPINAL FUSION SURGERY","FUSION OF VERTEBRA","HLT_0719","HLGT_0105","HISTORICAL DIAGNOSIS","SURGICAL AND MEDICAL PROCEDURES",null,"SCREENING 1","24-JUL-2013","1995"],[531,"CDISCPILOT01","701","1440","E01","VERBATIM_0507","PRESBYOPIA","PRESBYOPIA","HLT_0230","HLGT_0759","SIGNIFICANT PRE-EXISTING CONDITION","EYE DISORDERS",1,"SCREENING 1","24-JUL-2013",""],[532,"CDISCPILOT01","701","1442","","ALZHEIMER'S DISEASE","","","","","PRIMARY DIAGNOSIS","",null,"SCREENING 1","17-OCT-2013","20-FEB-2006"],[533,"CDISCPILOT01","701","1442","","VERBATIM_0936","HYSTERECTOMY","HYSTERECTOMY","HLT_0675","HLGT_0657","HISTORICAL DIAGNOSIS","SURGICAL AND MEDICAL PROCEDURES",null,"SCREENING 1","17-OCT-2013","1997"],[534,"CDISCPILOT01","701","1442","E01","VERBATIM_0301","HEADACHE","HEADACHE","HLT_0064","HLGT_0344","SIGNIFICANT PRE-EXISTING CONDITION","NERVOUS SYSTEM DISORDERS",1,"SCREENING 1","17-OCT-2013",""],[535,"CDISCPILOT01","701","1442","E02","VERBATIM_1532","MYOPIA","MYOPIA","HLT_0282","HLGT_0271","SIGNIFICANT PRE-EXISTING CONDITION","EYE DISORDERS",1,"SCREENING 1","17-OCT-2013",""],[536,"CDISCPILOT01","701","1444","","ALZHEIMER'S DISEASE","","","","","PRIMARY DIAGNOSIS","",null,"SCREENING 1","31-DEC-2012","21-MAY-2008"],[537,"CDISCPILOT01","701","1444","","VERBATIM_0250","RECTAL HAEMORRHAGE","RECTAL BLEEDING","HLT_0353","HLGT_0755","HISTORICAL DIAGNOSIS","GASTROINTESTINAL DISORDERS",null,"SCREENING 1","31-DEC-2012","NOV-2012"],[538,"CDISCPILOT01","701","1444","","VERBATIM_0517","CHEST PAIN","CHEST PAIN","HLT_0717","HLGT_0195","HISTORICAL DIAGNOSIS","GENERAL DISORDERS AND ADMINISTRATION SITE CONDITIONS",null,"SCREENING 1","31-DEC-2012","2012"],[539,"CDISCPILOT01","701","1444","","VERBATIM_0539","CHOLELITHIASIS","GALLBLADDER STONES","HLT_0084","HLGT_0177","HISTORICAL DIAGNOSIS","HEPATOBILIARY DISORDERS",null,"SCREENING 1","31-DEC-2012","2009"],[540,"CDISCPILOT01","701","1444","","VERBATIM_0554","ABDOMINAL PAIN","ABDOMINAL PAIN","HLT_0217","HLGT_0419","HISTORICAL DIAGNOSIS","GASTROINTESTINAL DISORDERS",null,"SCREENING 1","31-DEC-2012","2012"],[541,"CDISCPILOT01","701","1444","","VERBATIM_0563","INTESTINAL POLYP","INTESTINAL POLYP","HLT_0429","HLGT_0302","HISTORICAL DIAGNOSIS","GASTROINTESTINAL DISORDERS",null,"SCREENING 1","31-DEC-2012","2011"],[542,"CDISCPILOT01","701","1444","","VERBATIM_0714","HERPES ZOSTER","SHINGLES","HLT_0460","HLGT_0239","HISTORICAL DIAGNOSIS","INFECTIONS AND INFESTATIONS",null,"SCREENING 1","31-DEC-2012","AUG-2008"],[543,"CDISCPILOT01","701","1444","","VERBATIM_0721","DUODENAL ULCER","DUODENAL ULCER","HLT_0322","HLGT_0349","HISTORICAL DIAGNOSIS","GASTROINTESTINAL DISORDERS",null,"SCREENING 1","31-DEC-2012","10-NOV-2011"],[544,"CDISCPILOT01","701","1444","","VERBATIM_0800","DYSPEPSIA","INDIGESTION","HLT_0244","HLGT_0716","HISTORICAL DIAGNOSIS","GASTROINTESTINAL DISORDERS",null,"SCREENING 1","31-DEC-2012","2012"],[545,"CDISCPILOT01","701","1444","","VERBATIM_0929","HEADACHE","HEADACHE","HLT_0064","HLGT_0344","HISTORICAL DIAGNOSIS","NERVOUS SYSTEM DISORDERS",null,"SCREENING 1","31-DEC-2012","2011"],[546,"CDISCPILOT01","701","1444","","VERBATIM_1187","HAEMORRHOID OPERATION","HEMORRHOIDECTOMY","HLT_0300","HLGT_0468","HISTORICAL DIAGNOSIS","SURGICAL AND MEDICAL PROCEDURES",null,"SCREENING 1","31-DEC-2012","1978"],[547,"CDISCPILOT01","701","1444","","VERBATIM_1324","CHOLECYSTECTOMY","CHOLECYSTECTOMY","HLT_0149","HLGT_0074","HISTORICAL DIAGNOSIS","SURGICAL AND MEDICAL PROCEDURES",null,"SCREENING 1","31-DEC-2012","2009"],[548,"CDISCPILOT01","701","1444","","VERBATIM_1356","INTESTINAL POLYPECTOMY","INTESTINAL POLYPECTOMY","HLT_0223","HLGT_0386","HISTORICAL DIAGNOSIS","SURGICAL AND MEDICAL PROCEDURES",null,"SCREENING 1","31-DEC-2012","2011"],[549,"CDISCPILOT01","701","1444","","VERBATIM_1692","VASECTOMY","VASECTOMY","HLT_0108","HLGT_0517","HISTORICAL DIAGNOSIS","SURGICAL AND MEDICAL PROCEDURES",null,"SCREENING 1","31-DEC-2012","1986"],[550,"CDISCPILOT01","701","1444","E01","VERBATIM_0699","HIATUS HERNIA","HIATAL HERNIA","HLT_0159","HLGT_0109","SIGNIFICANT PRE-EXISTING CONDITION","GASTROINTESTINAL DISORDERS",1,"SCREENING 1","31-DEC-2012",""],[551,"CDISCPILOT01","701","1444","E02","VERBATIM_1351","HAEMORRHOIDS","EXTERNAL HEMORRHOIDS","HLT_0681","HLGT_0485","SIGNIFICANT PRE-EXISTING CONDITION","GASTROINTESTINAL DISORDERS",1,"SCREENING 1","31-DEC-2012",""],[552,"CDISCPILOT01","701","1444","E03","VERBATIM_0255","BENIGN PROSTATIC HYPERPLASIA","ENLARGED PROSTATE","HLT_0215","HLGT_0568","SIGNIFICANT PRE-EXISTING CONDITION","REPRODUCTIVE SYSTEM AND BREAST DISORDERS",1,"SCREENING 1","31-DEC-2012",""],[553,"CDISCPILOT01","701","1444","E04","VERBATIM_0929","HEADACHE","HEADACHE","HLT_0064","HLGT_0344","SIGNIFICANT PRE-EXISTING CONDITION","NERVOUS SYSTEM DISORDERS",1,"SCREENING 1","31-DEC-2012",""],[554,"CDISCPILOT01","701","1444","E05","VERBATIM_0560","OSTEOARTHRITIS","ELBOW OSTEOARTHRITIS","HLT_0247","HLGT_0462","SIGNIFICANT PRE-EXISTING CONDITION","MUSCULOSKELETAL AND CONNECTIVE TISSUE DISORDERS",1,"SCREENING 1","31-DEC-2012",""],[555,"CDISCPILOT01","701","1444","E06","VERBATIM_0978","DEAFNESS BILATERAL","HEARING LOSS BILATERAL","HLT_0567","HLGT_0426","SIGNIFICANT PRE-EXISTING CONDITION","EAR AND LABYRINTH DISORDERS",1,"SCREENING 1","31-DEC-2012",""],[556,"CDISCPILOT01","701","1444","E07","VERBATIM_1683","HYPERMETROPIA","HYPEROPIA","HLT_0546","HLGT_0646","SIGNIFICANT PRE-EXISTING CONDITION","EYE DISORDERS",1,"SCREENING 1","31-DEC-2012",""],[557,"CDISCPILOT01","701","1444","E08","VERBATIM_0771","DENTAL OPERATION","DENTAL OPERATION","HLT_0341","HLGT_0059","SIGNIFICANT PRE-EXISTING CONDITION","SURGICAL AND MEDICAL PROCEDURES",1,"SCREENING 1","31-DEC-2012",""],[558,"CDISCPILOT01","701","1444","E09","VERBATIM_1337","OSTEOARTHRITIS","SHOULDER OSTEOARTHRITIS","HLT_0247","HLGT_0462","SIGNIFICANT PRE-EXISTING CONDITION","MUSCULOSKELETAL AND CONNECTIVE TISSUE DISORDERS",1,"SCREENING 1","31-DEC-2012",""],[559,"CDISCPILOT01","701","1444","E10","VERBATIM_0443","CONSTIPATION","CONSTIPATION","HLT_0402","HLGT_0635","SIGNIFICANT PRE-EXISTING CONDITION","GASTROINTESTINAL DISORDERS",1,"SCREENING 1","31-DEC-2012",""],[560,"CDISCPILOT01","702","1082","","ALZHEIMER'S DISEASE","","","","","PRIMARY DIAGNOSIS","",null,"SCREENING 1","03-JUL-2013","17-MAY-2007"],[561,"CDISCPILOT01","702","1082","E01","VERBATIM_1072","CARDIAC PACEMAKER INSERTION","CARDIAC PACEMAKER INSERTION","HLT_0474","HLGT_0501","SIGNIFICANT PRE-EXISTING CONDITION","SURGICAL AND MEDICAL PROCEDURES",1,"SCREENING 1","03-JUL-2013",""],[562,"CDISCPILOT01","702","1082","E05","VERBATIM_1100","AORTIC STENOSIS","AORTIC STENOSIS","HLT_0682","HLGT_0353","SIGNIFICANT PRE-EXISTING CONDITION","VASCULAR DISORDERS",1,"SCREENING 1","03-JUL-2013",""],[563,"CDISCPILOT01","703","1042","","ALZHEIMER'S DISEASE","","","","","PRIMARY DIAGNOSIS","",null,"SCREENING 1","23-FEB-2013","23-JUL-2008"],[564,"CDISCPILOT01","703","1042","","VERBATIM_1084","ABSCESS DRAINAGE","LUNG ABSCESS DRAINAGE","HLT_0316","HLGT_0416","HISTORICAL DIAGNOSIS","SURGICAL AND MEDICAL PROCEDURES",null,"SCREENING 1","23-FEB-2013","1997"],[565,"CDISCPILOT01","703","1042","","VERBATIM_1169","INTESTINAL POLYPECTOMY","INTESTINAL POLYPECTOMY","HLT_0223","HLGT_0386","HISTORICAL DIAGNOSIS","SURGICAL AND MEDICAL PROCEDURES",null,"SCREENING 1","23-FEB-2013","2009"],[566,"CDISCPILOT01","703","1042","E01","VERBATIM_0409","CORONARY ARTERY DISEASE","CORONARY ARTERY DISEASE","HLT_0261","HLGT_0248","SIGNIFICANT PRE-EXISTING CONDITION","CARDIAC DISORDERS",1,"SCREENING 1","23-FEB-2013",""],[567,"CDISCPILOT01","703","1042","E02","VERBATIM_0087","EMPHYSEMA","EMPHYSEMA","HLT_0698","HLGT_0221","SIGNIFICANT PRE-EXISTING CONDITION","RESPIRATORY, THORACIC AND MEDIASTINAL DISORDERS",1,"SCREENING 1","23-FEB-2013",""],[568,"CDISCPILOT01","703","1042","E03","VERBATIM_1309","ARTHRITIS","ARTHRITIS","HLT_0019","HLGT_0587","SIGNIFICANT PRE-EXISTING CONDITION","MUSCULOSKELETAL AND CONNECTIVE TISSUE DISORDERS",1,"SCREENING 1","23-FEB-2013",""],[569,"CDISCPILOT01","703","1076","","ALZHEIMER'S DISEASE","","","","","PRIMARY DIAGNOSIS","",null,"SCREENING 1","17-OCT-2013","27-AUG-2012"],[570,"CDISCPILOT01","703","1076","E03","VERBATIM_0308","GLAUCOMA","GLAUCOMA","HLT_0556","HLGT_0734","SIGNIFICANT PRE-EXISTING CONDITION","EYE DISORDERS",1,"SCREENING 1","17-OCT-2013",""],[571,"CDISCPILOT01","703","1076","E04","VERBATIM_0342","HYPERTENSION","HYPERTENSION","HLT_0228","HLGT_0476","SIGNIFICANT PRE-EXISTING CONDITION","VASCULAR DISORDERS",1,"SCREENING 1","17-OCT-2013",""],[572,"CDISCPILOT01","703","1076","E05","VERBATIM_0164","HYPERCHOLESTEROLAEMIA","HYPERCHOLESTEROLEMIA","HLT_0025","HLGT_0703","SIGNIFICANT PRE-EXISTING CONDITION","METABOLISM AND NUTRITION DISORDERS",1,"SCREENING 1","17-OCT-2013",""],[573,"CDISCPILOT01","703","1076","E06","VERBATIM_0980","GOUT","GOUT","HLT_0396","HLGT_0479","SIGNIFICANT PRE-EXISTING CONDITION","METABOLISM AND NUTRITION DISORDERS",1,"SCREENING 1","17-OCT-2013",""],[574,"CDISCPILOT01","703","1086","","ALZHEIMER'S DISEASE","","","","","PRIMARY DIAGNOSIS","",null,"SCREENING 1","22-AUG-2012","27-APR-2011"],[575,"CDISCPILOT01","703","1096","","ALZHEIMER'S DISEASE","","","","","PRIMARY DIAGNOSIS","",null,"SCREENING 1","19-DEC-2012","20-DEC-2006"],[576,"CDISCPILOT01","703","1096","E01","VERBATIM_0786","HYPOACUSIS","HEARING DECREASED","HLT_0174","HLGT_0589","SIGNIFICANT PRE-EXISTING CONDITION","EAR AND LABYRINTH DISORDERS",1,"SCREENING 1","19-DEC-2012",""],[577,"CDISCPILOT01","703","1100","","ALZHEIMER'S DISEASE","","","","","PRIMARY DIAGNOSIS","",null,"SCREENING 1","28-FEB-2013","02-DEC-2010"],[578,"CDISCPILOT01","703","1100","E01","VERBATIM_1512","HYPOTHYROIDISM","HYPOTHYROIDISM","HLT_0454","HLGT_0558","SIGNIFICANT PRE-EXISTING CONDITION","ENDOCRINE DISORDERS",1,"SCREENING 1","28-FEB-2013",""],[579,"CDISCPILOT01","703","1100","E02","VERBATIM_0569","HYPOACUSIS","HEARING DECREASED","HLT_0174","HLGT_0589","SIGNIFICANT PRE-EXISTING CONDITION","EAR AND LABYRINTH DISORDERS",1,"SCREENING 1","28-FEB-2013",""],[580,"CDISCPILOT01","703","1100","E03","VERBATIM_1437","HEADACHE","HEADACHE","HLT_0064","HLGT_0344","SIGNIFICANT PRE-EXISTING CONDITION","NERVOUS SYSTEM DISORDERS",1,"SCREENING 1","28-FEB-2013",""],[581,"CDISCPILOT01","703","1100","E05","VERBATIM_1490","MYOCARDIAL INFARCTION","MYOCARDIAL INFARCTION","HLT_0649","HLGT_0688","SIGNIFICANT PRE-EXISTING CONDITION","CARDIAC DISORDERS",1,"SCREENING 1","28-FEB-2013",""],[582,"CDISCPILOT01","703","1100","E07","VERBATIM_1652","OEDEMA PERIPHERAL","LEG EDEMA","HLT_0661","HLGT_0137","SIGNIFICANT PRE-EXISTING CONDITION","GENERAL DISORDERS AND ADMINISTRATION SITE CONDITIONS",1,"SCREENING 1","28-FEB-2013",""],[583,"CDISCPILOT01","703","1119","","ALZHEIMER'S DISEASE","","","","","PRIMARY DIAGNOSIS","",null,"SCREENING 1","02-FEB-2013","01-FEB-2005"],[584,"CDISCPILOT01","703","1119","","VERBATIM_0433","RHEUMATIC FEVER","RHEUMATIC FEVER","HLT_0366","HLGT_0428","HISTORICAL DIAGNOSIS","MUSCULOSKELETAL AND CONNECTIVE TISSUE DISORDERS",null,"SCREENING 1","02-FEB-2013","1941"],[585,"CDISCPILOT01","703","1119","","VERBATIM_1339","FRACTURE TREATMENT","FRACTURE TREATMENT","HLT_0650","HLGT_0620","HISTORICAL DIAGNOSIS","SURGICAL AND MEDICAL PROCEDURES",null,"SCREENING 1","02-FEB-2013","02-DEC-2011"],[586,"CDISCPILOT01","703","1119","","VERBATIM_1345","CATHETERISATION CARDIAC","CARDIAC CATHETERIZATION","HLT_0699","HLGT_0454","HISTORICAL DIAGNOSIS","INVESTIGATIONS",null,"SCREENING 1","02-FEB-2013","2005"],[587,"CDISCPILOT01","703","1119","","VERBATIM_1345","CATHETERISATION CARDIAC","CARDIAC CATHETERIZATION","HLT_0699","HLGT_0454","HISTORICAL DIAGNOSIS","INVESTIGATIONS",null,"SCREENING 1","02-FEB-2013","2006"],[588,"CDISCPILOT01","703","1119","","VERBATIM_1440","ANGIOPLASTY","ANGIOPLASTY","HLT_0263","HLGT_0251","HISTORICAL DIAGNOSIS","SURGICAL AND MEDICAL PROCEDURES",null,"SCREENING 1","02-FEB-2013","2005"],[589,"CDISCPILOT01","703","1119","","VERBATIM_1440","ANGIOPLASTY","ANGIOPLASTY","HLT_0263","HLGT_0251","HISTORICAL DIAGNOSIS","SURGICAL AND MEDICAL PROCEDURES",null,"SCREENING 1","02-FEB-2013","2008"],[590,"CDISCPILOT01","703","1119","E01","VERBATIM_0164","HYPERCHOLESTEROLAEMIA","HYPERCHOLESTEROLEMIA","HLT_0025","HLGT_0703","SIGNIFICANT PRE-EXISTING CONDITION","METABOLISM AND NUTRITION DISORDERS",1,"SCREENING 1","02-FEB-2013",""],[591,"CDISCPILOT01","703","1119","E02","VERBATIM_0409","CORONARY ARTERY DISEASE","CORONARY ARTERY DISEASE","HLT_0261","HLGT_0248","SIGNIFICANT PRE-EXISTING CONDITION","CARDIAC DISORDERS",1,"SCREENING 1","02-FEB-2013",""],[592,"CDISCPILOT01","703","1175","","ALZHEIMER'S DISEASE","","","","","PRIMARY DIAGNOSIS","",null,"SCREENING 1","13-DEC-2013","19-SEP-2010"],[593,"CDISCPILOT01","703","1175","E02","VERBATIM_1410","ATRIOVENTRICULAR BLOCK FIRST DEGREE","ATRIOVENTRICULAR BLOCK FIRST DEGREE","HLT_0419","HLGT_0464","SIGNIFICANT PRE-EXISTING CONDITION","CARDIAC DISORDERS",1,"SCREENING 1","13-DEC-2013",""],[594,"CDISCPILOT01","703","1175","E03","VERBATIM_0353","BUNDLE BRANCH BLOCK RIGHT","RIGHT BUNDLE BRANCH BLOCK","HLT_0751","HLGT_0597","SIGNIFICANT PRE-EXISTING CONDITION","CARDIAC DISORDERS",1,"SCREENING 1","13-DEC-2013",""],[595,"CDISCPILOT01","703","1175","E04","VERBATIM_0559","BUNDLE BRANCH BLOCK LEFT","LEFT ANTERIOR HEMIBLOCK","HLT_0281","HLGT_0721","SIGNIFICANT PRE-EXISTING CONDITION","CARDIAC DISORDERS",1,"SCREENING 1","13-DEC-2013",""],[596,"CDISCPILOT01","703","1175","E05","VERBATIM_0042","SEASONAL ALLERGY","SEASONAL ALLERGY","HLT_0714","HLGT_0782","SIGNIFICANT PRE-EXISTING CONDITION","IMMUNE SYSTEM DISORDERS",1,"SCREENING 1","13-DEC-2013",""],[597,"CDISCPILOT01","703","1175","E06","VERBATIM_0817","LUNG NEOPLASM","LUNG NODULE","HLT_0483","HLGT_0364","SIGNIFICANT PRE-EXISTING CONDITION","NEOPLASMS BENIGN, MALIGNANT AND UNSPECIFIED (INCL CYSTS AND POLYPS)",1,"SCREENING 1","13-DEC-2013",""],[598,"CDISCPILOT01","703","1182","","ALZHEIMER'S DISEASE","","","","","PRIMARY DIAGNOSIS","",null,"SCREENING 1","08-OCT-2013","27-SEP-2011"],[599,"CDISCPILOT01","703","1182","","VERBATIM_0614","ATRIOVENTRICULAR BLOCK","HEART BLOCK","HLT_0389","HLGT_0278","HISTORICAL DIAGNOSIS","CARDIAC DISORDERS",null,"SCREENING 1","08-OCT-2013","2007"],[600,"CDISCPILOT01","703","1182","","VERBATIM_0941","CARDIAC PACEMAKER INSERTION","CARDIAC PACEMAKER INSERTION","HLT_0474","HLGT_0501","HISTORICAL DIAGNOSIS","SURGICAL AND MEDICAL PROCEDURES",null,"SCREENING 1","08-OCT-2013","2007"],[601,"CDISCPILOT01","703","1182","E01","VERBATIM_0584","HYPOACUSIS","HEARING DECREASED","HLT_0174","HLGT_0589","SIGNIFICANT PRE-EXISTING CONDITION","EAR AND LABYRINTH DISORDERS",2,"SCREENING 1","08-OCT-2013",""],[602,"CDISCPILOT01","703","1182","E02","VERBATIM_0342","HYPERTENSION","HYPERTENSION","HLT_0228","HLGT_0476","SIGNIFICANT PRE-EXISTING CONDITION","VASCULAR DISORDERS",1,"SCREENING 1","08-OCT-2013",""],[603,"CDISCPILOT01","703","1182","E03","VERBATIM_0220","CARDIAC PACEMAKER INSERTION","CARDIAC PACEMAKER INSERTION","HLT_0474","HLGT_0501","SIGNIFICANT PRE-EXISTING CONDITION","SURGICAL AND MEDICAL PROCEDURES",1,"SCREENING 1","08-OCT-2013",""],[604,"CDISCPILOT01","703","1182","E04","VERBATIM_1629","RASH","SKIN RASH","HLT_0762","HLGT_0198","SIGNIFICANT PRE-EXISTING CONDITION","SKIN AND SUBCUTANEOUS TISSUE DISORDERS",2,"SCREENING 1","08-OCT-2013",""],[605,"CDISCPILOT01","703","1182","E06","VERBATIM_0164","HYPERCHOLESTEROLAEMIA","HYPERCHOLESTEROLEMIA","HLT_0025","HLGT_0703","SIGNIFICANT PRE-EXISTING CONDITION","METABOLISM AND NUTRITION DISORDERS",1,"SCREENING 1","08-OCT-2013",""],[606,"CDISCPILOT01","703","1197","","ALZHEIMER'S DISEASE","","","","","PRIMARY DIAGNOSIS","",null,"SCREENING 1","01-JUN-2013","11-JAN-2012"],[607,"CDISCPILOT01","703","1197","E01","VERBATIM_0112","OEDEMA PERIPHERAL","EDEMA OF EXTREMITIES","HLT_0661","HLGT_0137","SIGNIFICANT PRE-EXISTING CONDITION","GENERAL DISORDERS AND ADMINISTRATION SITE CONDITIONS",1,"SCREENING 1","01-JUN-2013",""],[608,"CDISCPILOT01","703","1210","","ALZHEIMER'S DISEASE","","","","","PRIMARY DIAGNOSIS","",null,"SCREENING 1","08-MAR-2013","18-FEB-2010"],[609,"CDISCPILOT01","703","1210","","VERBATIM_0227","TONGUE OPERATION","TONGUE OPERATION","HLT_0182","HLGT_0383","HISTORICAL DIAGNOSIS","SURGICAL AND MEDICAL PROCEDURES",null,"SCREENING 1","08-MAR-2013","1975"],[610,"CDISCPILOT01","703","1210","","VERBATIM_1591","LIP AND/OR ORAL CAVITY CANCER","ORAL CANCER STAGE UNSPECIFIED","HLT_0543","HLGT_0536","HISTORICAL DIAGNOSIS","NEOPLASMS BENIGN, MALIGNANT AND UNSPECIFIED (INCL CYSTS AND POLYPS)",null,"SCREENING 1","08-MAR-2013","1975"],[611,"CDISCPILOT01","703","1210","E02","VERBATIM_1201","OSTEOPOROSIS","OSTEOPOROSIS","HLT_0381","HLGT_0634","SIGNIFICANT PRE-EXISTING CONDITION","MUSCULOSKELETAL AND CONNECTIVE TISSUE DISORDERS",1,"SCREENING 1","08-MAR-2013",""],[612,"CDISCPILOT01","703","1210","E03","VERBATIM_1513","OEDEMA PERIPHERAL","EDEMATOUS FEET","HLT_0661","HLGT_0137","SIGNIFICANT PRE-EXISTING CONDITION","GENERAL DISORDERS AND ADMINISTRATION SITE CONDITIONS",2,"SCREENING 1","08-MAR-2013",""],[613,"CDISCPILOT01","703","1258","","ALZHEIMER'S DISEASE","","","","","PRIMARY DIAGNOSIS","",null,"SCREENING 1","10-JUL-2012","17-FEB-2006"],[614,"CDISCPILOT01","703","1258","","VERBATIM_0657","OESOPHAGEAL STENOSIS","ESOPHAGEAL STENOSIS","HLT_0741","HLGT_0704","HISTORICAL DIAGNOSIS","GASTROINTESTINAL DISORDERS",null,"SCREENING 1","10-JUL-2012","MAY-2011"],[615,"CDISCPILOT01","703","1258","","VERBATIM_0764","BLADDER PROLAPSE","BLADDER PROLAPSE","HLT_0502","HLGT_0048","HISTORICAL DIAGNOSIS","RENAL AND URINARY DISORDERS",null,"SCREENING 1","10-JUL-2012","APR-2010"],[616,"CDISCPILOT01","703","1258","","VERBATIM_0936","HYSTERECTOMY","HYSTERECTOMY","HLT_0675","HLGT_0657","HISTORICAL DIAGNOSIS","SURGICAL AND MEDICAL PROCEDURES",null,"SCREENING 1","10-JUL-2012","APR-2010"],[617,"CDISCPILOT01","703","1258","","VERBATIM_1775","APPENDICECTOMY","APPENDECTOMY","HLT_0707","HLGT_0363","HISTORICAL DIAGNOSIS","SURGICAL AND MEDICAL PROCEDURES",null,"SCREENING 1","10-JUL-2012","1952"],[618,"CDISCPILOT01","703","1258","E01","VERBATIM_1309","ARTHRITIS","ARTHRITIS","HLT_0019","HLGT_0587","SIGNIFICANT PRE-EXISTING CONDITION","MUSCULOSKELETAL AND CONNECTIVE TISSUE DISORDERS",1,"SCREENING 1","10-JUL-2012",""],[619,"CDISCPILOT01","703","1258","E02","VERBATIM_0308","GLAUCOMA","GLAUCOMA","HLT_0556","HLGT_0734","SIGNIFICANT PRE-EXISTING CONDITION","EYE DISORDERS",2,"SCREENING 1","10-JUL-2012",""],[620,"CDISCPILOT01","703","1258","E03","VERBATIM_0342","HYPERTENSION","HYPERTENSION","HLT_0228","HLGT_0476","SIGNIFICANT PRE-EXISTING CONDITION","VASCULAR DISORDERS",1,"SCREENING 1","10-JUL-2012",""],[621,"CDISCPILOT01","703","1258","E04","VERBATIM_0164","HYPERCHOLESTEROLAEMIA","HYPERCHOLESTEROLEMIA","HLT_0025","HLGT_0703","SIGNIFICANT PRE-EXISTING CONDITION","METABOLISM AND NUTRITION DISORDERS",1,"SCREENING 1","10-JUL-2012",""],[622,"CDISCPILOT01","703","1258","E05","VERBATIM_0875","DIABETES MELLITUS","DIABETES","HLT_0447","HLGT_0572","SIGNIFICANT PRE-EXISTING CONDITION","METABOLISM AND NUTRITION DISORDERS",1,"SCREENING 1","10-JUL-2012",""],[623,"CDISCPILOT01","703","1258","E06","VERBATIM_1533","DIZZINESS","DIZZINESS","HLT_0619","HLGT_0751","SIGNIFICANT PRE-EXISTING CONDITION","NERVOUS SYSTEM DISORDERS",1,"SCREENING 1","10-JUL-2012",""],[624,"CDISCPILOT01","703","1279","","ALZHEIMER'S DISEASE","","","","","PRIMARY DIAGNOSIS","",null,"SCREENING 1","27-APR-2013","29-JUL-2010"],[625,"CDISCPILOT01","703","1279","E01","VERBATIM_1309","ARTHRITIS","ARTHRITIS","HLT_0019","HLGT_0587","SIGNIFICANT PRE-EXISTING CONDITION","MUSCULOSKELETAL AND CONNECTIVE TISSUE DISORDERS",1,"SCREENING 1","27-APR-2013",""],[626,"CDISCPILOT01","703","1295","","ALZHEIMER'S DISEASE","","","","","PRIMARY DIAGNOSIS","",null,"SCREENING 1","24-OCT-2013","05-APR-2012"],[627,"CDISCPILOT01","703","1295","","VERBATIM_1074","FRACTURE TREATMENT","FRACTURE TREATMENT","HLT_0650","HLGT_0620","HISTORICAL DIAGNOSIS","SURGICAL AND MEDICAL PROCEDURES",null,"SCREENING 1","24-OCT-2013","APR-2012"],[628,"CDISCPILOT01","703","1295","E01","VERBATIM_1512","HYPOTHYROIDISM","HYPOTHYROIDISM","HLT_0454","HLGT_0558","SIGNIFICANT PRE-EXISTING CONDITION","ENDOCRINE DISORDERS",1,"SCREENING 1","24-OCT-2013",""],[629,"CDISCPILOT01","703","1295","E02","VERBATIM_0109","ARTHRALGIA","PAIN IN HIP","HLT_0375","HLGT_0610","SIGNIFICANT PRE-EXISTING CONDITION","MUSCULOSKELETAL AND CONNECTIVE TISSUE DISORDERS",1,"SCREENING 1","24-OCT-2013",""],[630,"CDISCPILOT01","703","1295","E03","VERBATIM_0443","CONSTIPATION","CONSTIPATION","HLT_0402","HLGT_0635","SIGNIFICANT PRE-EXISTING CONDITION","GASTROINTESTINAL DISORDERS",1,"SCREENING 1","24-OCT-2013",""],[631,"CDISCPILOT01","703","1295","E04","VERBATIM_0391","DEAFNESS","HEARING LOSS","HLT_0234","HLGT_0025","SIGNIFICANT PRE-EXISTING CONDITION","EAR AND LABYRINTH DISORDERS",1,"SCREENING 1","24-OCT-2013",""],[632,"CDISCPILOT01","703","1295","E05","VERBATIM_1424","OSTEITIS DEFORMANS","PAGET'S DISEASE","HLT_0459","HLGT_0692","SIGNIFICANT PRE-EXISTING CONDITION","MUSCULOSKELETAL AND CONNECTIVE TISSUE DISORDERS",2,"SCREENING 1","24-OCT-2013",""],[633,"CDISCPILOT01","703","1299","","ALZHEIMER'S DISEASE","","","","","PRIMARY DIAGNOSIS","",null,"SCREENING 1","07-SEP-2012","16-SEP-2011"],[634,"CDISCPILOT01","703","1299","","VERBATIM_0393","COLECTOMY","COLECTOMY","HLT_0054","HLGT_0052","HISTORICAL DIAGNOSIS","SURGICAL AND MEDICAL PROCEDURES",null,"SCREENING 1","07-SEP-2012","2007"],[635,"CDISCPILOT01","703","1299","","VERBATIM_1390","BREAST CANCER","BREAST CANCER","HLT_0101","HLGT_0442","HISTORICAL DIAGNOSIS","NEOPLASMS BENIGN, MALIGNANT AND UNSPECIFIED (INCL CYSTS AND POLYPS)",null,"SCREENING 1","07-SEP-2012","2004"],[636,"CDISCPILOT01","703","1299","","VERBATIM_1415","MASTECTOMY","MASTECTOMY","HLT_0729","HLGT_0669","HISTORICAL DIAGNOSIS","SURGICAL AND MEDICAL PROCEDURES",null,"SCREENING 1","07-SEP-2012","2004"],[637,"CDISCPILOT01","703","1299","","VERBATIM_1602","INTESTINAL OBSTRUCTION","INTESTINAL OBSTRUCTION","HLT_0468","HLGT_0515","HISTORICAL DIAGNOSIS","GASTROINTESTINAL DISORDERS",null,"SCREENING 1","07-SEP-2012","2007"],[638,"CDISCPILOT01","703","1299","E01","VERBATIM_0308","GLAUCOMA","GLAUCOMA","HLT_0556","HLGT_0734","SIGNIFICANT PRE-EXISTING CONDITION","EYE DISORDERS",1,"SCREENING 1","07-SEP-2012",""],[639,"CDISCPILOT01","703","1299","E03","VERBATIM_1309","ARTHRITIS","ARTHRITIS","HLT_0019","HLGT_0587","SIGNIFICANT PRE-EXISTING CONDITION","MUSCULOSKELETAL AND CONNECTIVE TISSUE DISORDERS",1,"SCREENING 1","07-SEP-2012",""],[640,"CDISCPILOT01","703","1299","E04","VERBATIM_0584","HYPOACUSIS","HEARING DECREASED","HLT_0174","HLGT_0589","SIGNIFICANT PRE-EXISTING CONDITION","EAR AND LABYRINTH DISORDERS",1,"SCREENING 1","07-SEP-2012",""],[641,"CDISCPILOT01","703","1335","","ALZHEIMER'S DISEASE","","","","","PRIMARY DIAGNOSIS","",null,"SCREENING 1","28-FEB-2014","30-JAN-2008"],[642,"CDISCPILOT01","703","1335","","VERBATIM_0064","PEPTIC ULCER","PEPTIC ULCER","HLT_0113","HLGT_0482","HISTORICAL DIAGNOSIS","GASTROINTESTINAL DISORDERS",null,"SCREENING 1","28-FEB-2014","2007"],[643,"CDISCPILOT01","703","1335","E02","VERBATIM_1309","ARTHRITIS","ARTHRITIS","HLT_0019","HLGT_0587","SIGNIFICANT PRE-EXISTING CONDITION","MUSCULOSKELETAL AND CONNECTIVE TISSUE DISORDERS",1,"SCREENING 1","28-FEB-2014",""],[644,"CDISCPILOT01","703","1379","","ALZHEIMER'S DISEASE","","","","","PRIMARY DIAGNOSIS","",null,"SCREENING 1","12-SEP-2013","21-SEP-2009"],[645,"CDISCPILOT01","703","1379","","VERBATIM_0624","SKIN ULCER","STASIS ULCER","HLT_0005","HLGT_0017","HISTORICAL DIAGNOSIS","SKIN AND SUBCUTANEOUS TISSUE DISORDERS",null,"SCREENING 1","12-SEP-2013","2011"],[646,"CDISCPILOT01","703","1379","","VERBATIM_1615","UTERINE TUMOUR EXCISION","UTERINE BENIGN NEOPLASM REMOVAL","HLT_0081","HLGT_0357","HISTORICAL DIAGNOSIS","SURGICAL AND MEDICAL PROCEDURES",null,"SCREENING 1","12-SEP-2013","1971"],[647,"CDISCPILOT01","703","1379","E02","VERBATIM_0277","MITRAL VALVE DISEASE","MITRAL VALVE DISEASE","HLT_0755","HLGT_0053","SIGNIFICANT PRE-EXISTING CONDITION","CARDIAC DISORDERS",1,"SCREENING 1","12-SEP-2013",""],[648,"CDISCPILOT01","703","1379","E03","VERBATIM_0342","HYPERTENSION","HYPERTENSION","HLT_0228","HLGT_0476","SIGNIFICANT PRE-EXISTING CONDITION","VASCULAR DISORDERS",1,"SCREENING 1","12-SEP-2013",""],[649,"CDISCPILOT01","703","1379","E04","VERBATIM_0738","DIABETES MELLITUS NON-INSULIN-DEPENDENT","NON-INSULIN-DEPENDENT DIABETES MELLITUS","HLT_0706","HLGT_0092","SIGNIFICANT PRE-EXISTING CONDITION","METABOLISM AND NUTRITION DISORDERS",1,"SCREENING 1","12-SEP-2013",""],[650,"CDISCPILOT01","703","1379","E05","VERBATIM_1734","OSTEOARTHRITIS","DEGENERATIVE JOINT DISEASE","HLT_0247","HLGT_0462","SIGNIFICANT PRE-EXISTING CONDITION","MUSCULOSKELETAL AND CONNECTIVE TISSUE DISORDERS",1,"SCREENING 1","12-SEP-2013",""],[651,"CDISCPILOT01","703","1379","E06","VERBATIM_0980","GOUT","GOUT","HLT_0396","HLGT_0479","SIGNIFICANT PRE-EXISTING CONDITION","METABOLISM AND NUTRITION DISORDERS",1,"SCREENING 1","12-SEP-2013",""],[652,"CDISCPILOT01","703","1379","E07","VERBATIM_0568","ATHEROSCLEROSIS","ATHEROSCLEROSIS","HLT_0129","HLGT_0455","SIGNIFICANT PRE-EXISTING CONDITION","VASCULAR DISORDERS",1,"SCREENING 1","12-SEP-2013",""],[653,"CDISCPILOT01","703","1403","","ALZHEIMER'S DISEASE","","","","","PRIMARY DIAGNOSIS","",null,"SCREENING 1","05-DEC-2012","07-DEC-2010"],[654,"CDISCPILOT01","703","1403","E04","VERBATIM_0786","HYPOACUSIS","HEARING DECREASED","HLT_0174","HLGT_0589","SIGNIFICANT PRE-EXISTING CONDITION","EAR AND LABYRINTH DISORDERS",1,"SCREENING 1","05-DEC-2012",""],[655,"CDISCPILOT01","703","1403","E05","VERBATIM_1333","CATARACT","RIGHT CATARACT","HLT_0090","HLGT_0498","SIGNIFICANT PRE-EXISTING CONDITION","EYE DISORDERS",1,"SCREENING 1","05-DEC-2012",""],[656,"CDISCPILOT01","703","1403","E06","VERBATIM_1610","SKIN LACERATION","LACERATION OF FINGER","HLT_0075","HLGT_0118","SIGNIFICANT PRE-EXISTING CONDITION","INJURY, POISONING AND PROCEDURAL COMPLICATIONS",2,"SCREENING 1","05-DEC-2012",""],[657,"CDISCPILOT01","703","1439","","ALZHEIMER'S DISEASE","","","","","PRIMARY DIAGNOSIS","",null,"SCREENING 1","04-MAR-2014","29-JUL-2010"],[658,"CDISCPILOT01","703","1439","","VERBATIM_0503","HIP ARTHROPLASTY","HIP REPLACEMENT","HLT_0709","HLGT_0449","HISTORICAL DIAGNOSIS","SURGICAL AND MEDICAL PROCEDURES",null,"SCREENING 1","04-MAR-2014","2010"],[659,"CDISCPILOT01","703","1439","","VERBATIM_0720","KNEE ARTHROPLASTY","KNEE TOTAL REPLACEMENT","HLT_0710","HLGT_0078","HISTORICAL DIAGNOSIS","SURGICAL AND MEDICAL PROCEDURES",null,"SCREENING 1","04-MAR-2014","2011"],[660,"CDISCPILOT01","703","1439","","VERBATIM_1009","MENOPAUSE","MENOPAUSE","HLT_0723","HLGT_0632","HISTORICAL DIAGNOSIS","SOCIAL CIRCUMSTANCES",null,"SCREENING 1","04-MAR-2014","1992"],[661,"CDISCPILOT01","704","1008","","ALZHEIMER'S DISEASE","","","","","PRIMARY DIAGNOSIS","",null,"SCREENING 1","06-JAN-2013","17-OCT-2011"],[662,"CDISCPILOT01","704","1008","","VERBATIM_0371","CATARACT OPERATION","RIGHT CATARACT EXTRACTION","HLT_0432","HLGT_0058","HISTORICAL DIAGNOSIS","SURGICAL AND MEDICAL PROCEDURES",null,"SCREENING 1","06-JAN-2013","21-JUL-2012"],[663,"CDISCPILOT01","704","1008","","VERBATIM_1534","BIOPSY BREAST NORMAL","BIOPSY BREAST NORMAL","HLT_0575","HLGT_0269","HISTORICAL DIAGNOSIS","INVESTIGATIONS",null,"SCREENING 1","06-JAN-2013","JAN-2012"],[664,"CDISCPILOT01","704","1008","","VERBATIM_1775","APPENDICECTOMY","APPENDECTOMY","HLT_0707","HLGT_0363","HISTORICAL DIAGNOSIS","SURGICAL AND MEDICAL PROCEDURES",null,"SCREENING 1","06-JAN-2013","1956"],[665,"CDISCPILOT01","704","1008","E01","VERBATIM_0692","HYPOTHYROIDISM","HYPOTHYROIDISM","HLT_0454","HLGT_0558","SIGNIFICANT PRE-EXISTING CONDITION","ENDOCRINE DISORDERS",1,"SCREENING 1","06-JAN-2013",""],[666,"CDISCPILOT01","704","1008","E02","VERBATIM_0391","DEAFNESS","HEARING LOSS","HLT_0234","HLGT_0025","SIGNIFICANT PRE-EXISTING CONDITION","EAR AND LABYRINTH DISORDERS",1,"SCREENING 1","06-JAN-2013",""],[667,"CDISCPILOT01","704","1008","E04","VERBATIM_0301","HEADACHE","HEADACHE","HLT_0064","HLGT_0344","SIGNIFICANT PRE-EXISTING CONDITION","NERVOUS SYSTEM DISORDERS",1,"SCREENING 1","06-JAN-2013",""],[668,"CDISCPILOT01","704","1009","","ALZHEIMER'S DISEASE","","","","","PRIMARY DIAGNOSIS","",null,"SCREENING 1","20-AUG-2013","03-FEB-2009"],[669,"CDISCPILOT01","704","1009","E01","VERBATIM_1646","BENIGN PROSTATIC HYPERPLASIA","ENLARGED PROSTATE","HLT_0215","HLGT_0568","SIGNIFICANT PRE-EXISTING CONDITION","REPRODUCTIVE SYSTEM AND BREAST DISORDERS",1,"SCREENING 1","20-AUG-2013",""],[670,"CDISCPILOT01","704","1009","E02","VERBATIM_1309","ARTHRITIS","ARTHRITIS","HLT_0019","HLGT_0587","SIGNIFICANT PRE-EXISTING CONDITION","MUSCULOSKELETAL AND CONNECTIVE TISSUE DISORDERS",1,"SCREENING 1","20-AUG-2013",""],[671,"CDISCPILOT01","704","1009","E05","VERBATIM_1029","SEASONAL ALLERGY","SEASONAL ALLERGY","HLT_0714","HLGT_0782","SIGNIFICANT PRE-EXISTING CONDITION","IMMUNE SYSTEM DISORDERS",1,"SCREENING 1","20-AUG-2013",""],[672,"CDISCPILOT01","704","1009","E06","VERBATIM_0292","HEADACHE","INTERMITTENT HEADACHE","HLT_0064","HLGT_0344","SIGNIFICANT PRE-EXISTING CONDITION","NERVOUS SYSTEM DISORDERS",1,"SCREENING 1","20-AUG-2013",""],[673,"CDISCPILOT01","704","1009","E11","VERBATIM_1635","MYOCARDIAL INFARCTION","MYOCARDIAL INFARCTION","HLT_0649","HLGT_0688","SIGNIFICANT PRE-EXISTING CONDITION","CARDIAC DISORDERS",1,"SCREENING 1","20-AUG-2013",""],[674,"CDISCPILOT01","704","1010","","ALZHEIMER'S DISEASE","","","","","PRIMARY DIAGNOSIS","",null,"SCREENING 1","08-FEB-2014","02-JAN-2006"],[675,"CDISCPILOT01","704","1010","","VERBATIM_0257","PATELLA FRACTURE","FRACTURE OF PATELLA","HLT_0044","HLGT_0712","HISTORICAL DIAGNOSIS","INJURY, POISONING AND PROCEDURAL COMPLICATIONS",null,"SCREENING 1","08-FEB-2014","MAY-1994"],[676,"CDISCPILOT01","704","1010","","VERBATIM_0472","INGUINAL HERNIA","INGUINAL HERNIA","HLT_0388","HLGT_0368","HISTORICAL DIAGNOSIS","GASTROINTESTINAL DISORDERS",null,"SCREENING 1","08-FEB-2014","1957"],[677,"CDISCPILOT01","704","1010","","VERBATIM_0472","INGUINAL HERNIA","INGUINAL HERNIA","HLT_0388","HLGT_0368","HISTORICAL DIAGNOSIS","GASTROINTESTINAL DISORDERS",null,"SCREENING 1","08-FEB-2014","1959"],[678,"CDISCPILOT01","704","1010","","VERBATIM_0472","INGUINAL HERNIA","INGUINAL HERNIA","HLT_0388","HLGT_0368","HISTORICAL DIAGNOSIS","GASTROINTESTINAL DISORDERS",null,"SCREENING 1","08-FEB-2014","1967"],[679,"CDISCPILOT01","704","1010","","VERBATIM_0472","INGUINAL HERNIA","INGUINAL HERNIA","HLT_0388","HLGT_0368","HISTORICAL DIAGNOSIS","GASTROINTESTINAL DISORDERS",null,"SCREENING 1","08-FEB-2014","1972"],[680,"CDISCPILOT01","704","1010","","VERBATIM_0472","INGUINAL HERNIA","INGUINAL HERNIA","HLT_0388","HLGT_0368","HISTORICAL DIAGNOSIS","GASTROINTESTINAL DISORDERS",null,"SCREENING 1","08-FEB-2014","1978"],[681,"CDISCPILOT01","704","1010","","VERBATIM_0472","INGUINAL HERNIA","INGUINAL HERNIA","HLT_0388","HLGT_0368","HISTORICAL DIAGNOSIS","GASTROINTESTINAL DISORDERS",null,"SCREENING 1","08-FEB-2014","1986"],[682,"CDISCPILOT01","704","1010","E02","VERBATIM_0342","HYPERTENSION","HYPERTENSION","HLT_0228","HLGT_0476","SIGNIFICANT PRE-EXISTING CONDITION","VASCULAR DISORDERS",1,"SCREENING 1","08-FEB-2014",""],[683,"CDISCPILOT01","704","1017","","ALZHEIMER'S DISEASE","","","","","PRIMARY DIAGNOSIS","",null,"SCREENING 1","20-SEP-2013","27-MAR-2011"],[684,"CDISCPILOT01","704","1017","","VERBATIM_0954","MYOCARDIAL INFARCTION","HEART ATTACK","HLT_0649","HLGT_0688","HISTORICAL DIAGNOSIS","CARDIAC DISORDERS",null,"SCREENING 1","20-SEP-2013","15-MAY-2000"],[685,"CDISCPILOT01","704","1017","","VERBATIM_1486","TRIPLE VESSEL BYPASS GRAFT","TRIPLE VESSEL BYPASS GRAFT","HLT_0414","HLGT_0399","HISTORICAL DIAGNOSIS","SURGICAL AND MEDICAL PROCEDURES",null,"SCREENING 1","20-SEP-2013","16-DEC-2006"],[686,"CDISCPILOT01","704","1017","E03","VERBATIM_1608","EXTRASYSTOLES","SKIPPED BEATS","HLT_0135","HLGT_0044","SIGNIFICANT PRE-EXISTING CONDITION","CARDIAC DISORDERS",1,"SCREENING 1","20-SEP-2013",""],[687,"CDISCPILOT01","704","1017","E06","VERBATIM_0608","LIBIDO INCREASED","LIBIDO INCREASED","HLT_0367","HLGT_0494","SIGNIFICANT PRE-EXISTING CONDITION","PSYCHIATRIC DISORDERS",1,"SCREENING 1","20-SEP-2013",""],[688,"CDISCPILOT01","704","1017","E07","VERBATIM_0811","MYOCARDIAL INFARCTION","MYOCARDIAL INFARCTION","HLT_0649","HLGT_0688","SIGNIFICANT PRE-EXISTING CONDITION","CARDIAC DISORDERS",1,"SCREENING 1","20-SEP-2013",""],[689,"CDISCPILOT01","704","1017","E08","VERBATIM_0572","CARDIAC DISORDER","CARDIAC DISORDER","HLT_0507","HLGT_0126","SIGNIFICANT PRE-EXISTING CONDITION","CARDIAC DISORDERS",1,"SCREENING 1","20-SEP-2013",""],[690,"CDISCPILOT01","704","1017","E09","VERBATIM_1153","ELECTROCARDIOGRAM ST SEGMENT DEPRESSION","ST SEGMENT DEPRESSED","HLT_0610","HLGT_0220","SIGNIFICANT PRE-EXISTING CONDITION","INVESTIGATIONS",1,"SCREENING 1","20-SEP-2013",""],[691,"CDISCPILOT01","704","1017","E10","VERBATIM_0806","ELECTROCARDIOGRAM ST SEGMENT ELEVATION","ST SEGMENT ELEVATED","HLT_0272","HLGT_0116","SIGNIFICANT PRE-EXISTING CONDITION","INVESTIGATIONS",1,"SCREENING 1","20-SEP-2013",""],[692,"CDISCPILOT01","704","1025","","ALZHEIMER'S DISEASE","","","","","PRIMARY DIAGNOSIS","",null,"SCREENING 1","18-SEP-2013","03-MAR-2012"],[693,"CDISCPILOT01","704","1025","","VERBATIM_0474","HIP SURGERY","HIP SURGERY","HLT_0531","HLGT_0626","HISTORICAL DIAGNOSIS","SURGICAL AND MEDICAL PROCEDURES",null,"SCREENING 1","18-SEP-2013","1982"],[694,"CDISCPILOT01","704","1025","","VERBATIM_1687","CATARACT OPERATION","CATARACT OPERATION","HLT_0432","HLGT_0058","HISTORICAL DIAGNOSIS","SURGICAL AND MEDICAL PROCEDURES",null,"SCREENING 1","18-SEP-2013","MAY-2012"],[695,"CDISCPILOT01","704","1025","E03","VERBATIM_1472","ATRIAL TACHYCARDIA","PAROXYSMAL ATRIAL TACHYCARDIA","HLT_0337","HLGT_0474","SIGNIFICANT PRE-EXISTING CONDITION","CARDIAC DISORDERS",1,"SCREENING 1","18-SEP-2013",""],[696,"CDISCPILOT01","704","1025","E04","VERBATIM_1309","ARTHRITIS","ARTHRITIS","HLT_0019","HLGT_0587","SIGNIFICANT PRE-EXISTING CONDITION","MUSCULOSKELETAL AND CONNECTIVE TISSUE DISORDERS",1,"SCREENING 1","18-SEP-2013",""],[697,"CDISCPILOT01","704","1065","","ALZHEIMER'S DISEASE","","","","","PRIMARY DIAGNOSIS","",null,"SCREENING 1","17-OCT-2013","23-MAR-2010"],[698,"CDISCPILOT01","704","1065","E01","VERBATIM_0342","HYPERTENSION","HYPERTENSION","HLT_0228","HLGT_0476","SIGNIFICANT PRE-EXISTING CONDITION","VASCULAR DISORDERS",1,"SCREENING 1","17-OCT-2013",""],[699,"CDISCPILOT01","704","1065","E02","VERBATIM_1044","BLOOD CHOLESTEROL INCREASED","HIGH CHOLESTEROL","HLT_0210","HLGT_0430","SIGNIFICANT PRE-EXISTING CONDITION","INVESTIGATIONS",1,"SCREENING 1","17-OCT-2013",""],[700,"CDISCPILOT01","704","1065","E03","VERBATIM_1029","SEASONAL ALLERGY","SEASONAL ALLERGY","HLT_0714","HLGT_0782","SIGNIFICANT PRE-EXISTING CONDITION","IMMUNE SYSTEM DISORDERS",1,"SCREENING 1","17-OCT-2013",""],[701,"CDISCPILOT01","704","1065","E04","VERBATIM_1309","ARTHRITIS","ARTHRITIS","HLT_0019","HLGT_0587","SIGNIFICANT PRE-EXISTING CONDITION","MUSCULOSKELETAL AND CONNECTIVE TISSUE DISORDERS",1,"SCREENING 1","17-OCT-2013",""],[702,"CDISCPILOT01","704","1065","E05","VERBATIM_0256","SPINAL OSTEOARTHRITIS","SPINAL OSTEOARTHRITIS","HLT_0070","HLGT_0581","SIGNIFICANT PRE-EXISTING CONDITION","MUSCULOSKELETAL AND CONNECTIVE TISSUE DISORDERS",1,"SCREENING 1","17-OCT-2013",""],[703,"CDISCPILOT01","704","1065","E08","VERBATIM_1189","CARDIAC MURMUR","SYSTOLIC MURMUR","HLT_0085","HLGT_0133","SIGNIFICANT PRE-EXISTING CONDITION","INVESTIGATIONS",1,"SCREENING 1","17-OCT-2013",""],[704,"CDISCPILOT01","704","1065","E09","VERBATIM_0786","HYPOACUSIS","HEARING DECREASED","HLT_0174","HLGT_0589","SIGNIFICANT PRE-EXISTING CONDITION","EAR AND LABYRINTH DISORDERS",1,"SCREENING 1","17-OCT-2013",""],[705,"CDISCPILOT01","704","1074","","ALZHEIMER'S DISEASE","","","","","PRIMARY DIAGNOSIS","",null,"SCREENING 1","19-JAN-2014","30-JAN-2009"],[706,"CDISCPILOT01","704","1074","","VERBATIM_0219","INTERNAL FIXATION OF FRACTURE","INTERNAL FIXATION OF FRACTURE","HLT_0212","HLGT_0440","HISTORICAL DIAGNOSIS","SURGICAL AND MEDICAL PROCEDURES",null,"SCREENING 1","19-JAN-2014","2007"],[707,"CDISCPILOT01","704","1074","","VERBATIM_0936","HYSTERECTOMY","HYSTERECTOMY","HLT_0675","HLGT_0657","HISTORICAL DIAGNOSIS","SURGICAL AND MEDICAL PROCEDURES",null,"SCREENING 1","19-JAN-2014","1993"],[708,"CDISCPILOT01","704","1074","E01","VERBATIM_0342","HYPERTENSION","HYPERTENSION","HLT_0228","HLGT_0476","SIGNIFICANT PRE-EXISTING CONDITION","VASCULAR DISORDERS",1,"SCREENING 1","19-JAN-2014",""],[709,"CDISCPILOT01","704","1074","E02","VERBATIM_1175","PAIN IN EXTREMITY","LEG PAIN","HLT_0213","HLGT_0764","SIGNIFICANT PRE-EXISTING CONDITION","MUSCULOSKELETAL AND CONNECTIVE TISSUE DISORDERS",1,"SCREENING 1","19-JAN-2014",""],[710,"CDISCPILOT01","704","1074","E03","VERBATIM_0692","HYPOTHYROIDISM","HYPOTHYROIDISM","HLT_0454","HLGT_0558","SIGNIFICANT PRE-EXISTING CONDITION","ENDOCRINE DISORDERS",1,"SCREENING 1","19-JAN-2014",""],[711,"CDISCPILOT01","704","1074","E04","VERBATIM_0308","GLAUCOMA","GLAUCOMA","HLT_0556","HLGT_0734","SIGNIFICANT PRE-EXISTING CONDITION","EYE DISORDERS",1,"SCREENING 1","19-JAN-2014",""],[712,"CDISCPILOT01","704","1074","E05","VERBATIM_1029","SEASONAL ALLERGY","SEASONAL ALLERGY","HLT_0714","HLGT_0782","SIGNIFICANT PRE-EXISTING CONDITION","IMMUNE SYSTEM DISORDERS",1,"SCREENING 1","19-JAN-2014",""],[713,"CDISCPILOT01","704","1074","E06","VERBATIM_0890","DIZZINESS","DIZZINESS","HLT_0619","HLGT_0751","SIGNIFICANT PRE-EXISTING CONDITION","NERVOUS SYSTEM DISORDERS",1,"SCREENING 1","19-JAN-2014",""],[714,"CDISCPILOT01","704","1074","E07","VERBATIM_1579","URINARY INCONTINENCE","URINARY INCONTINENCE","HLT_0572","HLGT_0128","SIGNIFICANT PRE-EXISTING CONDITION","RENAL AND URINARY DISORDERS",1,"SCREENING 1","19-JAN-2014",""],[715,"CDISCPILOT01","704","1093","","ALZHEIMER'S DISEASE","","","","","PRIMARY DIAGNOSIS","",null,"SCREENING 1","22-FEB-2013","17-JUL-2010"],[716,"CDISCPILOT01","704","1093","","VERBATIM_0472","INGUINAL HERNIA","INGUINAL HERNIA","HLT_0388","HLGT_0368","HISTORICAL DIAGNOSIS","GASTROINTESTINAL DISORDERS",null,"SCREENING 1","22-FEB-2013","MAY-1999"],[717,"CDISCPILOT01","704","1093","","VERBATIM_0834","BLADDER NEOPLASM SURGERY","BLADDER TUMOR RESECTION","HLT_0183","HLGT_0006","HISTORICAL DIAGNOSIS","SURGICAL AND MEDICAL PROCEDURES",null,"SCREENING 1","22-FEB-2013","NOV-2006"],[718,"CDISCPILOT01","704","1093","E01","VERBATIM_0342","HYPERTENSION","HYPERTENSION","HLT_0228","HLGT_0476","SIGNIFICANT PRE-EXISTING CONDITION","VASCULAR DISORDERS",1,"SCREENING 1","22-FEB-2013",""],[719,"CDISCPILOT01","704","1093","E03","VERBATIM_0875","DIABETES MELLITUS","DIABETES","HLT_0447","HLGT_0572","SIGNIFICANT PRE-EXISTING CONDITION","METABOLISM AND NUTRITION DISORDERS",1,"SCREENING 1","22-FEB-2013",""],[720,"CDISCPILOT01","704","1093","E07","VERBATIM_0850","CHOKING","CHOKED ON FOOD","HLT_0446","HLGT_0761","SIGNIFICANT PRE-EXISTING CONDITION","RESPIRATORY, THORACIC AND MEDIASTINAL DISORDERS",1,"SCREENING 1","22-FEB-2013",""],[721,"CDISCPILOT01","704","1114","","ALZHEIMER'S DISEASE","","","","","PRIMARY DIAGNOSIS","",null,"SCREENING 1","09-JAN-2013","25-MAR-2007"],[722,"CDISCPILOT01","704","1114","","VERBATIM_1725","CORONARY ANGIOPLASTY","CORONARY ANGIOPLASTY","HLT_0042","HLGT_0042","HISTORICAL DIAGNOSIS","SURGICAL AND MEDICAL PROCEDURES",null,"SCREENING 1","09-JAN-2013","DEC-2004"],[723,"CDISCPILOT01","704","1114","","VERBATIM_1725","CORONARY ANGIOPLASTY","CORONARY ANGIOPLASTY","HLT_0042","HLGT_0042","HISTORICAL DIAGNOSIS","SURGICAL AND MEDICAL PROCEDURES",null,"SCREENING 1","09-JAN-2013","SEP-2011"],[724,"CDISCPILOT01","704","1114","","VERBATIM_1725","CORONARY ANGIOPLASTY","CORONARY ANGIOPLASTY","HLT_0042","HLGT_0042","HISTORICAL DIAGNOSIS","SURGICAL AND MEDICAL PROCEDURES",null,"SCREENING 1","09-JAN-2013","28-DEC-2011"],[725,"CDISCPILOT01","704","1114","","VERBATIM_1775","APPENDICECTOMY","APPENDECTOMY","HLT_0707","HLGT_0363","HISTORICAL DIAGNOSIS","SURGICAL AND MEDICAL PROCEDURES",null,"SCREENING 1","09-JAN-2013","MAY-1977"],[726,"CDISCPILOT01","704","1114","E01","VERBATIM_1309","ARTHRITIS","ARTHRITIS","HLT_0019","HLGT_0587","SIGNIFICANT PRE-EXISTING CONDITION","MUSCULOSKELETAL AND CONNECTIVE TISSUE DISORDERS",1,"SCREENING 1","09-JAN-2013",""],[727,"CDISCPILOT01","704","1114","E02","VERBATIM_0410","ARTERIOSCLEROSIS","ARTERIOSCLEROSIS","HLT_0662","HLGT_0526","SIGNIFICANT PRE-EXISTING CONDITION","VASCULAR DISORDERS",1,"SCREENING 1","09-JAN-2013",""],[728,"CDISCPILOT01","704","1120","","ALZHEIMER'S DISEASE","","","","","PRIMARY DIAGNOSIS","",null,"SCREENING 1","18-NOV-2013","23-MAR-2007"],[729,"CDISCPILOT01","704","1120","","VERBATIM_0936","HYSTERECTOMY","HYSTERECTOMY","HLT_0675","HLGT_0657","HISTORICAL DIAGNOSIS","SURGICAL AND MEDICAL PROCEDURES",null,"SCREENING 1","18-NOV-2013","1977"],[730,"CDISCPILOT01","704","1120","E03","VERBATIM_1726","MYOCARDIAL INFARCTION","INFERIOR MYOCARDIAL INFARCTION","HLT_0649","HLGT_0688","SIGNIFICANT PRE-EXISTING CONDITION","CARDIAC DISORDERS",1,"SCREENING 1","18-NOV-2013",""],[731,"CDISCPILOT01","704","1127","","ALZHEIMER'S DISEASE","","","","","PRIMARY DIAGNOSIS","",null,"SCREENING 1","16-SEP-2013","11-SEP-2008"],[732,"CDISCPILOT01","704","1127","E01","VERBATIM_0829","CHRONIC OBSTRUCTIVE PULMONARY DISEASE","CHRONIC OBSTRUCTIVE PULMONARY DISEASE","HLT_0497","HLGT_0242","SIGNIFICANT PRE-EXISTING CONDITION","RESPIRATORY, THORACIC AND MEDIASTINAL DISORDERS",1,"SCREENING 1","16-SEP-2013",""],[733,"CDISCPILOT01","704","1135","","ALZHEIMER'S DISEASE","","","","","PRIMARY DIAGNOSIS","",null,"SCREENING 1","23-OCT-2013","06-OCT-2010"],[734,"CDISCPILOT01","704","1135","","VERBATIM_0673","JOINT DISLOCATION","DISLOCATED SHOULDER","HLT_0035","HLGT_0227","HISTORICAL DIAGNOSIS","INJURY, POISONING AND PROCEDURAL COMPLICATIONS",null,"SCREENING 1","23-OCT-2013","2010"],[735,"CDISCPILOT01","704","1135","","VERBATIM_0674","DIPHTHERIA","DIPHTHERIA","HLT_0601","HLGT_0677","HISTORICAL DIAGNOSIS","INFECTIONS AND INFESTATIONS",null,"SCREENING 1","23-OCT-2013","1962"],[736,"CDISCPILOT01","704","1135","","VERBATIM_1515","BREAST COSMETIC SURGERY","BREAST REDUCTION","HLT_0080","HLGT_0143","HISTORICAL DIAGNOSIS","SURGICAL AND MEDICAL PROCEDURES",null,"SCREENING 1","23-OCT-2013","1987"],[737,"CDISCPILOT01","704","1164","","ALZHEIMER'S DISEASE","","","","","PRIMARY DIAGNOSIS","",null,"SCREENING 1","11-SEP-2012","04-MAR-2011"],[738,"CDISCPILOT01","704","1164","","VERBATIM_0473","GUN SHOT WOUND","GUN SHOT WOUND","HLT_0015","HLGT_0150","HISTORICAL DIAGNOSIS","INJURY, POISONING AND PROCEDURAL COMPLICATIONS",null,"SCREENING 1","11-SEP-2012","1986"],[739,"CDISCPILOT01","704","1164","","VERBATIM_1590","HEPATITIS","HEPATITIS","HLT_0777","HLGT_0292","HISTORICAL DIAGNOSIS","HEPATOBILIARY DISORDERS",null,"SCREENING 1","11-SEP-2012","1964"],[740,"CDISCPILOT01","704","1164","E03","VERBATIM_0914","MYOCARDIAL INFARCTION","MYOCARDIAL INFARCTION","HLT_0649","HLGT_0688","SIGNIFICANT PRE-EXISTING CONDITION","CARDIAC DISORDERS",1,"SCREENING 1","11-SEP-2012",""],[741,"CDISCPILOT01","704","1164","E04","VERBATIM_0888","VENTRICULAR SEPTAL DEFECT","VENTRICULAR SEPTAL DEFECT","HLT_0589","HLGT_0747","SIGNIFICANT PRE-EXISTING CONDITION","CONGENITAL, FAMILIAL AND GENETIC DISORDERS",1,"SCREENING 1","11-SEP-2012",""],[742,"CDISCPILOT01","704","1164","E05","VERBATIM_0443","CONSTIPATION","CONSTIPATION","HLT_0402","HLGT_0635","SIGNIFICANT PRE-EXISTING CONDITION","GASTROINTESTINAL DISORDERS",1,"SCREENING 1","11-SEP-2012",""],[743,"CDISCPILOT01","704","1218","","ALZHEIMER'S DISEASE","","","","","PRIMARY DIAGNOSIS","",null,"SCREENING 1","11-NOV-2012","15-AUG-2010"],[744,"CDISCPILOT01","704","1218","","VERBATIM_0954","MYOCARDIAL INFARCTION","HEART ATTACK","HLT_0649","HLGT_0688","HISTORICAL DIAGNOSIS","CARDIAC DISORDERS",null,"SCREENING 1","11-NOV-2012","1997"],[745,"CDISCPILOT01","704","1218","","VERBATIM_1007","ANGINA PECTORIS","ANGINA PECTORIS","HLT_0033","HLGT_0063","HISTORICAL DIAGNOSIS","CARDIAC DISORDERS",null,"SCREENING 1","11-NOV-2012","AUG-2011"],[746,"CDISCPILOT01","704","1218","","VERBATIM_1102","CORONARY ARTERY SURGERY","CORONARY ARTERY BYPASS","HLT_0457","HLGT_0045","HISTORICAL DIAGNOSIS","SURGICAL AND MEDICAL PROCEDURES",null,"SCREENING 1","11-NOV-2012","1997"],[747,"CDISCPILOT01","704","1218","","VERBATIM_1277","STENT PLACEMENT","STENT PLACEMENT","HLT_0645","HLGT_0144","HISTORICAL DIAGNOSIS","SURGICAL AND MEDICAL PROCEDURES",null,"SCREENING 1","11-NOV-2012","AUG-2011"],[748,"CDISCPILOT01","704","1218","","VERBATIM_1637","CATARACT OPERATION","CATARACT OPERATION","HLT_0432","HLGT_0058","HISTORICAL DIAGNOSIS","SURGICAL AND MEDICAL PROCEDURES",null,"SCREENING 1","11-NOV-2012","NOV-2011"],[749,"CDISCPILOT01","704","1218","E01","VERBATIM_0342","HYPERTENSION","HYPERTENSION","HLT_0228","HLGT_0476","SIGNIFICANT PRE-EXISTING CONDITION","VASCULAR DISORDERS",1,"SCREENING 1","11-NOV-2012",""],[750,"CDISCPILOT01","704","1218","E02","VERBATIM_0391","DEAFNESS","HEARING LOSS","HLT_0234","HLGT_0025","SIGNIFICANT PRE-EXISTING CONDITION","EAR AND LABYRINTH DISORDERS",1,"SCREENING 1","11-NOV-2012",""],[751,"CDISCPILOT01","704","1218","E03","VERBATIM_0228","CHOLELITHIASIS","CHOLELITHIASIS","HLT_0084","HLGT_0177","SIGNIFICANT PRE-EXISTING CONDITION","HEPATOBILIARY DISORDERS",1,"SCREENING 1","11-NOV-2012",""],[752,"CDISCPILOT01","704","1218","E06","VERBATIM_1309","ARTHRITIS","ARTHRITIS","HLT_0019","HLGT_0587","SIGNIFICANT PRE-EXISTING CONDITION","MUSCULOSKELETAL AND CONNECTIVE TISSUE DISORDERS",1,"SCREENING 1","11-NOV-2012",""],[753,"CDISCPILOT01","704","1233","","ALZHEIMER'S DISEASE","","","","","PRIMARY DIAGNOSIS","",null,"SCREENING 1","08-MAR-2013","15-JAN-2011"],[754,"CDISCPILOT01","704","1233","","VERBATIM_0783","HIP ARTHROPLASTY","HIP REPLACEMENT","HLT_0709","HLGT_0449","HISTORICAL DIAGNOSIS","SURGICAL AND MEDICAL PROCEDURES",null,"SCREENING 1","08-MAR-2013","2000"],[755,"CDISCPILOT01","704","1233","","VERBATIM_1775","APPENDICECTOMY","APPENDECTOMY","HLT_0707","HLGT_0363","HISTORICAL DIAGNOSIS","SURGICAL AND MEDICAL PROCEDURES",null,"SCREENING 1","08-MAR-2013","1934"],[756,"CDISCPILOT01","704","1233","E01","VERBATIM_0391","DEAFNESS","HEARING LOSS","HLT_0234","HLGT_0025","SIGNIFICANT PRE-EXISTING CONDITION","EAR AND LABYRINTH DISORDERS",1,"SCREENING 1","08-MAR-2013",""],[757,"CDISCPILOT01","704","1233","E02","VERBATIM_1201","OSTEOPOROSIS","OSTEOPOROSIS","HLT_0381","HLGT_0634","SIGNIFICANT PRE-EXISTING CONDITION","MUSCULOSKELETAL AND CONNECTIVE TISSUE DISORDERS",1,"SCREENING 1","08-MAR-2013",""],[758,"CDISCPILOT01","704","1233","E03","VERBATIM_1381","MYALGIA","MUSCLE PAIN","HLT_0700","HLGT_0121","SIGNIFICANT PRE-EXISTING CONDITION","MUSCULOSKELETAL AND CONNECTIVE TISSUE DISORDERS",1,"SCREENING 1","08-MAR-2013",""],[759,"CDISCPILOT01","704","1241","","ALZHEIMER'S DISEASE","","","","","PRIMARY DIAGNOSIS","",null,"SCREENING 1","14-AUG-2013","25-JUL-2011"],[760,"CDISCPILOT01","704","1241","","VERBATIM_0342","HYPERTENSION","HYPERTENSION","HLT_0228","HLGT_0476","HISTORICAL DIAGNOSIS","VASCULAR DISORDERS",null,"SCREENING 1","14-AUG-2013","NOV-2001"],[761,"CDISCPILOT01","704","1241","E01","VERBATIM_0443","CONSTIPATION","CONSTIPATION","HLT_0402","HLGT_0635","SIGNIFICANT PRE-EXISTING CONDITION","GASTROINTESTINAL DISORDERS",1,"SCREENING 1","14-AUG-2013",""],[762,"CDISCPILOT01","704","1241","E04","VERBATIM_1452","RASH","RASH","HLT_0762","HLGT_0198","SIGNIFICANT PRE-EXISTING CONDITION","SKIN AND SUBCUTANEOUS TISSUE DISORDERS",1,"SCREENING 1","14-AUG-2013",""],[763,"CDISCPILOT01","704","1241","E05","VERBATIM_0423","MYOCARDIAL INFARCTION","INFERIOR MYOCARDIAL INFARCTION","HLT_0649","HLGT_0688","SIGNIFICANT PRE-EXISTING CONDITION","CARDIAC DISORDERS",1,"SCREENING 1","14-AUG-2013",""],[764,"CDISCPILOT01","704","1260","","ALZHEIMER'S DISEASE","","","","","PRIMARY DIAGNOSIS","",null,"SCREENING 1","23-AUG-2012","29-NOV-2002"],[765,"CDISCPILOT01","704","1260","","VERBATIM_0089","RENAL STONE REMOVAL","REMOVAL OF KIDNEY STONE","HLT_0303","HLGT_0633","HISTORICAL DIAGNOSIS","SURGICAL AND MEDICAL PROCEDURES",null,"SCREENING 1","23-AUG-2012","1992"],[766,"CDISCPILOT01","704","1260","","VERBATIM_0637","HIP ARTHROPLASTY","HIP REPLACEMENT","HLT_0709","HLGT_0449","HISTORICAL DIAGNOSIS","SURGICAL AND MEDICAL PROCEDURES",null,"SCREENING 1","23-AUG-2012","14-MAY-2012"],[767,"CDISCPILOT01","704","1260","E03","VERBATIM_1579","URINARY INCONTINENCE","URINARY INCONTINENCE","HLT_0572","HLGT_0128","SIGNIFICANT PRE-EXISTING CONDITION","RENAL AND URINARY DISORDERS",1,"SCREENING 1","23-AUG-2012",""],[768,"CDISCPILOT01","704","1260","E04","VERBATIM_1574","GAIT DISTURBANCE","GAIT DISORDER","HLT_0175","HLGT_0694","SIGNIFICANT PRE-EXISTING CONDITION","GENERAL DISORDERS AND ADMINISTRATION SITE CONDITIONS",1,"SCREENING 1","23-AUG-2012",""],[769,"CDISCPILOT01","704","1266","","ALZHEIMER'S DISEASE","","","","","PRIMARY DIAGNOSIS","",null,"SCREENING 1","05-OCT-2013","02-DEC-2011"],[770,"CDISCPILOT01","704","1266","","VERBATIM_0774","BASAL CELL CARCINOMA","BASAL CELL CARCINOMA","HLT_0332","HLGT_0328","HISTORICAL DIAGNOSIS","NEOPLASMS BENIGN, MALIGNANT AND UNSPECIFIED (INCL CYSTS AND POLYPS)",null,"SCREENING 1","05-OCT-2013","2002"],[771,"CDISCPILOT01","704","1266","","VERBATIM_1014","HERNIA REPAIR","HERNIA REPAIR","HLT_0766","HLGT_0696","HISTORICAL DIAGNOSIS","SURGICAL AND MEDICAL PROCEDURES",null,"SCREENING 1","05-OCT-2013","2007"],[772,"CDISCPILOT01","704","1266","","VERBATIM_1014","HERNIA REPAIR","HERNIA REPAIR","HLT_0766","HLGT_0696","HISTORICAL DIAGNOSIS","SURGICAL AND MEDICAL PROCEDURES",null,"SCREENING 1","05-OCT-2013","2012"],[773,"CDISCPILOT01","704","1266","","VERBATIM_1170","BIOPSY PROSTATE NORMAL","BIOPSY PROSTATE NORMAL","HLT_0691","HLGT_0607","HISTORICAL DIAGNOSIS","INVESTIGATIONS",null,"SCREENING 1","05-OCT-2013","MAR-1998"],[774,"CDISCPILOT01","704","1266","E01","VERBATIM_0402","ATRIAL FIBRILLATION","ATRIAL FIBRILLATION","HLT_0365","HLGT_0012","SIGNIFICANT PRE-EXISTING CONDITION","CARDIAC DISORDERS",1,"SCREENING 1","05-OCT-2013",""],[775,"CDISCPILOT01","704","1266","E02","VERBATIM_0342","HYPERTENSION","HYPERTENSION","HLT_0228","HLGT_0476","SIGNIFICANT PRE-EXISTING CONDITION","VASCULAR DISORDERS",1,"SCREENING 1","05-OCT-2013",""],[776,"CDISCPILOT01","704","1266","E03","VERBATIM_0164","HYPERCHOLESTEROLAEMIA","HYPERCHOLESTEROLEMIA","HLT_0025","HLGT_0703","SIGNIFICANT PRE-EXISTING CONDITION","METABOLISM AND NUTRITION DISORDERS",1,"SCREENING 1","05-OCT-2013",""],[777,"CDISCPILOT01","704","1266","E04","VERBATIM_1097","ASTHMA","ASTHMA","HLT_0254","HLGT_0380","SIGNIFICANT PRE-EXISTING CONDITION","RESPIRATORY, THORACIC AND MEDIASTINAL DISORDERS",1,"SCREENING 1","05-OCT-2013",""],[778,"CDISCPILOT01","704","1266","E05","VERBATIM_0255","BENIGN PROSTATIC HYPERPLASIA","ENLARGED PROSTATE","HLT_0215","HLGT_0568","SIGNIFICANT PRE-EXISTING CONDITION","REPRODUCTIVE SYSTEM AND BREAST DISORDERS",1,"SCREENING 1","05-OCT-2013",""],[779,"CDISCPILOT01","704","1266","E06","VERBATIM_1309","ARTHRITIS","ARTHRITIS","HLT_0019","HLGT_0587","SIGNIFICANT PRE-EXISTING CONDITION","MUSCULOSKELETAL AND CONNECTIVE TISSUE DISORDERS",1,"SCREENING 1","05-OCT-2013",""],[780,"CDISCPILOT01","704","1266","E07","VERBATIM_1181","ESSENTIAL TREMOR","ESSENTIAL TREMOR","HLT_0398","HLGT_0631","SIGNIFICANT PRE-EXISTING CONDITION","NERVOUS SYSTEM DISORDERS",1,"SCREENING 1","05-OCT-2013",""],[781,"CDISCPILOT01","704","1266","E08","VERBATIM_1206","HEART RATE IRREGULAR","HEARTBEATS IRREGULAR","HLT_0765","HLGT_0140","SIGNIFICANT PRE-EXISTING CONDITION","INVESTIGATIONS",1,"SCREENING 1","05-OCT-2013",""],[782,"CDISCPILOT01","704","1266","E09","VERBATIM_0391","DEAFNESS","HEARING LOSS","HLT_0234","HLGT_0025","SIGNIFICANT PRE-EXISTING CONDITION","EAR AND LABYRINTH DISORDERS",1,"SCREENING 1","05-OCT-2013",""],[783,"CDISCPILOT01","704","1323","","ALZHEIMER'S DISEASE","","","","","PRIMARY DIAGNOSIS","",null,"SCREENING 1","13-JUN-2013","23-MAR-2010"],[784,"CDISCPILOT01","704","1323","","VERBATIM_0535","GASTRIC ULCER","STOMACH ULCER","HLT_0119","HLGT_0729","HISTORICAL DIAGNOSIS","GASTROINTESTINAL DISORDERS",null,"SCREENING 1","13-JUN-2013","2003"],[785,"CDISCPILOT01","704","1323","","VERBATIM_0743","INTESTINAL OBSTRUCTION","BOWEL OBSTRUCTION","HLT_0468","HLGT_0515","HISTORICAL DIAGNOSIS","GASTROINTESTINAL DISORDERS",null,"SCREENING 1","13-JUN-2013","1986"],[786,"CDISCPILOT01","704","1323","","VERBATIM_0936","HYSTERECTOMY","HYSTERECTOMY","HLT_0675","HLGT_0657","HISTORICAL DIAGNOSIS","SURGICAL AND MEDICAL PROCEDURES",null,"SCREENING 1","13-JUN-2013","1986"],[787,"CDISCPILOT01","704","1323","E01","VERBATIM_1016","RHINITIS ALLERGIC","ALLERGIC RHINITIS","HLT_0423","HLGT_0207","SIGNIFICANT PRE-EXISTING CONDITION","RESPIRATORY, THORACIC AND MEDIASTINAL DISORDERS",1,"SCREENING 1","13-JUN-2013",""],[788,"CDISCPILOT01","704","1323","E02","VERBATIM_0984","DRY EYE","DRY EYES","HLT_0291","HLGT_0314","SIGNIFICANT PRE-EXISTING CONDITION","EYE DISORDERS",1,"SCREENING 1","13-JUN-2013",""],[789,"CDISCPILOT01","704","1323","E03","VERBATIM_1029","SEASONAL ALLERGY","SEASONAL ALLERGY","HLT_0714","HLGT_0782","SIGNIFICANT PRE-EXISTING CONDITION","IMMUNE SYSTEM DISORDERS",1,"SCREENING 1","13-JUN-2013",""],[790,"CDISCPILOT01","704","1323","E04","VERBATIM_0443","CONSTIPATION","CONSTIPATION","HLT_0402","HLGT_0635","SIGNIFICANT PRE-EXISTING CONDITION","GASTROINTESTINAL DISORDERS",1,"SCREENING 1","13-JUN-2013",""],[791,"CDISCPILOT01","704","1323","E05","VERBATIM_1201","OSTEOPOROSIS","OSTEOPOROSIS","HLT_0381","HLGT_0634","SIGNIFICANT PRE-EXISTING CONDITION","MUSCULOSKELETAL AND CONNECTIVE TISSUE DISORDERS",1,"SCREENING 1","13-JUN-2013",""],[792,"CDISCPILOT01","704","1323","E06","VERBATIM_0687","ARTHRITIS","ARTHRITIS","HLT_0019","HLGT_0587","SIGNIFICANT PRE-EXISTING CONDITION","MUSCULOSKELETAL AND CONNECTIVE TISSUE DISORDERS",1,"SCREENING 1","13-JUN-2013",""],[793,"CDISCPILOT01","704","1325","","ALZHEIMER'S DISEASE","","","","","PRIMARY DIAGNOSIS","",null,"SCREENING 1","16-APR-2014","02-NOV-2008"],[794,"CDISCPILOT01","704","1325","","VERBATIM_0369","AORTIC ANEURYSM REPAIR","AORTIC ANEURYSM REPAIR","HLT_0774","HLGT_0767","HISTORICAL DIAGNOSIS","SURGICAL AND MEDICAL PROCEDURES",null,"SCREENING 1","16-APR-2014","2008"],[795,"CDISCPILOT01","704","1325","","VERBATIM_0509","GASTRIC ULCER","STOMACH ULCER","HLT_0119","HLGT_0729","HISTORICAL DIAGNOSIS","GASTROINTESTINAL DISORDERS",null,"SCREENING 1","16-APR-2014","1975"],[796,"CDISCPILOT01","704","1325","","VERBATIM_1249","TRANSURETHRAL PROSTATECTOMY","PROSTATE TRANSURETHRAL RESECTION","HLT_0551","HLGT_0320","HISTORICAL DIAGNOSIS","SURGICAL AND MEDICAL PROCEDURES",null,"SCREENING 1","16-APR-2014","2006"],[797,"CDISCPILOT01","704","1325","E01","VERBATIM_0391","DEAFNESS","HEARING LOSS","HLT_0234","HLGT_0025","SIGNIFICANT PRE-EXISTING CONDITION","EAR AND LABYRINTH DISORDERS",1,"SCREENING 1","16-APR-2014",""],[798,"CDISCPILOT01","704","1325","E02","VERBATIM_0255","BENIGN PROSTATIC HYPERPLASIA","ENLARGED PROSTATE","HLT_0215","HLGT_0568","SIGNIFICANT PRE-EXISTING CONDITION","REPRODUCTIVE SYSTEM AND BREAST DISORDERS",1,"SCREENING 1","16-APR-2014",""],[799,"CDISCPILOT01","704","1325","E03","VERBATIM_0652","CHRONIC OBSTRUCTIVE PULMONARY DISEASE","COPD","HLT_0497","HLGT_0242","SIGNIFICANT PRE-EXISTING CONDITION","RESPIRATORY, THORACIC AND MEDIASTINAL DISORDERS",1,"SCREENING 1","16-APR-2014",""],[800,"CDISCPILOT01","704","1332","","ALZHEIMER'S DISEASE","","","","","PRIMARY DIAGNOSIS","",null,"SCREENING 1","24-NOV-2013","09-NOV-2011"],[801,"CDISCPILOT01","704","1332","","VERBATIM_0438","HEAD INJURY","HEAD INJURY","HLT_0201","HLGT_0554","HISTORICAL DIAGNOSIS","INJURY, POISONING AND PROCEDURAL COMPLICATIONS",null,"SCREENING 1","24-NOV-2013","2007"],[802,"CDISCPILOT01","704","1332","","VERBATIM_0550","HERNIA REPAIR","HERNIA REPAIR","HLT_0766","HLGT_0696","HISTORICAL DIAGNOSIS","SURGICAL AND MEDICAL PROCEDURES",null,"SCREENING 1","24-NOV-2013","23-JAN-2013"],[803,"CDISCPILOT01","704","1332","","VERBATIM_1249","TRANSURETHRAL PROSTATECTOMY","PROSTATE TRANSURETHRAL RESECTION","HLT_0551","HLGT_0320","HISTORICAL DIAGNOSIS","SURGICAL AND MEDICAL PROCEDURES",null,"SCREENING 1","24-NOV-2013","04-APR-2013"],[804,"CDISCPILOT01","704","1332","E03","VERBATIM_1698","NASOPHARYNGITIS","COLD","HLT_0036","HLGT_0709","SIGNIFICANT PRE-EXISTING CONDITION","INFECTIONS AND INFESTATIONS",1,"SCREENING 1","24-NOV-2013",""],[805,"CDISCPILOT01","704","1332","E04","VERBATIM_1065","TINNITUS","TINNITUS","HLT_0570","HLGT_0180","SIGNIFICANT PRE-EXISTING CONDITION","EAR AND LABYRINTH DISORDERS",1,"SCREENING 1","24-NOV-2013",""],[806,"CDISCPILOT01","704","1351","","ALZHEIMER'S DISEASE","","","","","PRIMARY DIAGNOSIS","",null,"SCREENING 1","26-SEP-2013","10-SEP-2012"],[807,"CDISCPILOT01","704","1351","","VERBATIM_1014","HERNIA REPAIR","HERNIA REPAIR","HLT_0766","HLGT_0696","HISTORICAL DIAGNOSIS","SURGICAL AND MEDICAL PROCEDURES",null,"SCREENING 1","26-SEP-2013","1973"],[808,"CDISCPILOT01","704","1351","","VERBATIM_1014","HERNIA REPAIR","HERNIA REPAIR","HLT_0766","HLGT_0696","HISTORICAL DIAGNOSIS","SURGICAL AND MEDICAL PROCEDURES",null,"SCREENING 1","26-SEP-2013","1986"],[809,"CDISCPILOT01","704","1351","","VERBATIM_1696","MALIGNANT TUMOUR EXCISION","MALIGNANT TUMOUR EXCISION","HLT_0238","HLGT_0209","HISTORICAL DIAGNOSIS","SURGICAL AND MEDICAL PROCEDURES",null,"SCREENING 1","26-SEP-2013","1991"],[810,"CDISCPILOT01","704","1351","","VERBATIM_1696","MALIGNANT TUMOUR EXCISION","MALIGNANT TUMOUR EXCISION","HLT_0238","HLGT_0209","HISTORICAL DIAGNOSIS","SURGICAL AND MEDICAL PROCEDURES",null,"SCREENING 1","26-SEP-2013","2011"],[811,"CDISCPILOT01","704","1351","","VERBATIM_1737","SKIN GRAFT","SKIN GRAFT NOS","HLT_0392","HLGT_0390","HISTORICAL DIAGNOSIS","SURGICAL AND MEDICAL PROCEDURES",null,"SCREENING 1","26-SEP-2013","1992"],[812,"CDISCPILOT01","704","1351","","VERBATIM_1737","SKIN GRAFT","SKIN GRAFT NOS","HLT_0392","HLGT_0390","HISTORICAL DIAGNOSIS","SURGICAL AND MEDICAL PROCEDURES",null,"SCREENING 1","26-SEP-2013","1996"],[813,"CDISCPILOT01","704","1351","E01","VERBATIM_1029","SEASONAL ALLERGY","SEASONAL ALLERGY","HLT_0714","HLGT_0782","SIGNIFICANT PRE-EXISTING CONDITION","IMMUNE SYSTEM DISORDERS",1,"SCREENING 1","26-SEP-2013",""],[814,"CDISCPILOT01","704","1388","","ALZHEIMER'S DISEASE","","","","","PRIMARY DIAGNOSIS","",null,"SCREENING 1","28-NOV-2012","26-OCT-2010"],[815,"CDISCPILOT01","704","1388","","VERBATIM_0267","HAEMORRHOIDS","HEMORRHOIDS","HLT_0681","HLGT_0485","HISTORICAL DIAGNOSIS","GASTROINTESTINAL DISORDERS",null,"SCREENING 1","28-NOV-2012","1977"],[816,"CDISCPILOT01","704","1388","","VERBATIM_1295","GANGLION","GANGLION","HLT_0674","HLGT_0046","HISTORICAL DIAGNOSIS","MUSCULOSKELETAL AND CONNECTIVE TISSUE DISORDERS",null,"SCREENING 1","28-NOV-2012","1977"],[817,"CDISCPILOT01","704","1388","","VERBATIM_1394","CHOLECYSTECTOMY","CHOLECYSTECTOMY","HLT_0149","HLGT_0074","HISTORICAL DIAGNOSIS","SURGICAL AND MEDICAL PROCEDURES",null,"SCREENING 1","28-NOV-2012","1961"],[818,"CDISCPILOT01","704","1388","","VERBATIM_1775","APPENDICECTOMY","APPENDECTOMY","HLT_0707","HLGT_0363","HISTORICAL DIAGNOSIS","SURGICAL AND MEDICAL PROCEDURES",null,"SCREENING 1","28-NOV-2012","1943"],[819,"CDISCPILOT01","704","1388","E01","VERBATIM_0301","HEADACHE","HEADACHE","HLT_0064","HLGT_0344","SIGNIFICANT PRE-EXISTING CONDITION","NERVOUS SYSTEM DISORDERS",1,"SCREENING 1","28-NOV-2012",""],[820,"CDISCPILOT01","704","1388","E02","VERBATIM_0496","OSTEOARTHRITIS","DEGENERATIVE JOINT DISEASE","HLT_0247","HLGT_0462","SIGNIFICANT PRE-EXISTING CONDITION","MUSCULOSKELETAL AND CONNECTIVE TISSUE DISORDERS",1,"SCREENING 1","28-NOV-2012",""],[821,"CDISCPILOT01","704","1388","E03","VERBATIM_1267","DERMATITIS","DERMATITIS","HLT_0328","HLGT_0054","SIGNIFICANT PRE-EXISTING CONDITION","SKIN AND SUBCUTANEOUS TISSUE DISORDERS",1,"SCREENING 1","28-NOV-2012",""],[822,"CDISCPILOT01","704","1388","E04","VERBATIM_0308","GLAUCOMA","GLAUCOMA","HLT_0556","HLGT_0734","SIGNIFICANT PRE-EXISTING CONDITION","EYE DISORDERS",1,"SCREENING 1","28-NOV-2012",""],[823,"CDISCPILOT01","704","1388","E05","VERBATIM_1521","BENIGN PROSTATIC HYPERPLASIA","BENIGN PROSTATIC HYPERTROPHY","HLT_0215","HLGT_0568","SIGNIFICANT PRE-EXISTING CONDITION","REPRODUCTIVE SYSTEM AND BREAST DISORDERS",1,"SCREENING 1","28-NOV-2012",""],[824,"CDISCPILOT01","704","1388","E06","VERBATIM_0661","DEPRESSION","DEPRESSION","HLT_0167","HLGT_0582","SIGNIFICANT PRE-EXISTING CONDITION","PSYCHIATRIC DISORDERS",1,"SCREENING 1","28-NOV-2012",""],[825,"CDISCPILOT01","704","1388","E07","VERBATIM_0443","CONSTIPATION","CONSTIPATION","HLT_0402","HLGT_0635","SIGNIFICANT PRE-EXISTING CONDITION","GASTROINTESTINAL DISORDERS",1,"SCREENING 1","28-NOV-2012",""],[826,"CDISCPILOT01","704","1435","","ALZHEIMER'S DISEASE","","","","","PRIMARY DIAGNOSIS","",null,"SCREENING 1","01-NOV-2012","20-JAN-2010"],[827,"CDISCPILOT01","704","1435","","VERBATIM_1517","CATARACT OPERATION","CATARACT EXTRACTION","HLT_0432","HLGT_0058","HISTORICAL DIAGNOSIS","SURGICAL AND MEDICAL PROCEDURES",null,"SCREENING 1","01-NOV-2012","JUN-2008"],[828,"CDISCPILOT01","704","1435","E01","VERBATIM_0391","DEAFNESS","HEARING LOSS","HLT_0234","HLGT_0025","SIGNIFICANT PRE-EXISTING CONDITION","EAR AND LABYRINTH DISORDERS",1,"SCREENING 1","01-NOV-2012",""],[829,"CDISCPILOT01","704","1435","E02","VERBATIM_1097","ASTHMA","ASTHMA","HLT_0254","HLGT_0380","SIGNIFICANT PRE-EXISTING CONDITION","RESPIRATORY, THORACIC AND MEDIASTINAL DISORDERS",1,"SCREENING 1","01-NOV-2012",""],[830,"CDISCPILOT01","704","1435","E03","VERBATIM_0443","CONSTIPATION","CONSTIPATION","HLT_0402","HLGT_0635","SIGNIFICANT PRE-EXISTING CONDITION","GASTROINTESTINAL DISORDERS",1,"SCREENING 1","01-NOV-2012",""],[831,"CDISCPILOT01","704","1435","E04","VERBATIM_0255","BENIGN PROSTATIC HYPERPLASIA","ENLARGED PROSTATE","HLT_0215","HLGT_0568","SIGNIFICANT PRE-EXISTING CONDITION","REPRODUCTIVE SYSTEM AND BREAST DISORDERS",1,"SCREENING 1","01-NOV-2012",""],[832,"CDISCPILOT01","704","1435","E05","VERBATIM_0308","GLAUCOMA","GLAUCOMA","HLT_0556","HLGT_0734","SIGNIFICANT PRE-EXISTING CONDITION","EYE DISORDERS",1,"SCREENING 1","01-NOV-2012",""],[833,"CDISCPILOT01","704","1435","E06","VERBATIM_1530","MACULAR DEGENERATION","MACULAR DEGENERATION","HLT_0401","HLGT_0370","SIGNIFICANT PRE-EXISTING CONDITION","EYE DISORDERS",1,"SCREENING 1","01-NOV-2012",""],[834,"CDISCPILOT01","704","1435","E07","VERBATIM_1660","CLAUSTROPHOBIA","CLAUSTROPHOBIA","HLT_0329","HLGT_0151","SIGNIFICANT PRE-EXISTING CONDITION","PSYCHIATRIC DISORDERS",1,"SCREENING 1","01-NOV-2012",""],[835,"CDISCPILOT01","704","1445","","ALZHEIMER'S DISEASE","","","","","PRIMARY DIAGNOSIS","",null,"SCREENING 1","01-MAY-2014","11-NOV-2012"],[836,"CDISCPILOT01","704","1445","","VERBATIM_1151","VAGOTOMY","VAGOTOMY","HLT_0181","HLGT_0228","HISTORICAL DIAGNOSIS","SURGICAL AND MEDICAL PROCEDURES",null,"SCREENING 1","01-MAY-2014","1989"],[837,"CDISCPILOT01","704","1445","","VERBATIM_1699","EYE LASER SURGERY","EYE LASER SURGERY","HLT_0355","HLGT_0189","HISTORICAL DIAGNOSIS","SURGICAL AND MEDICAL PROCEDURES",null,"SCREENING 1","01-MAY-2014","2010"],[838,"CDISCPILOT01","704","1445","","VERBATIM_1775","APPENDICECTOMY","APPENDECTOMY","HLT_0707","HLGT_0363","HISTORICAL DIAGNOSIS","SURGICAL AND MEDICAL PROCEDURES",null,"SCREENING 1","01-MAY-2014","1953"],[839,"CDISCPILOT01","704","1445","E02","VERBATIM_0255","BENIGN PROSTATIC HYPERPLASIA","ENLARGED PROSTATE","HLT_0215","HLGT_0568","SIGNIFICANT PRE-EXISTING CONDITION","REPRODUCTIVE SYSTEM AND BREAST DISORDERS",1,"SCREENING 1","01-MAY-2014",""],[840,"CDISCPILOT01","704","1445","E03","VERBATIM_1701","POLLAKIURIA","URINARY FREQUENCY","HLT_0393","HLGT_0560","SIGNIFICANT PRE-EXISTING CONDITION","RENAL AND URINARY DISORDERS",1,"SCREENING 1","01-MAY-2014",""],[841,"CDISCPILOT01","704","1445","E04","VERBATIM_0129","DIABETES MELLITUS NON-INSULIN-DEPENDENT","NON-INSULIN-DEPENDENT DIABETES MELLITUS","HLT_0706","HLGT_0092","SIGNIFICANT PRE-EXISTING CONDITION","METABOLISM AND NUTRITION DISORDERS",1,"SCREENING 1","01-MAY-2014",""],[842,"CDISCPILOT01","704","1445","E05","VERBATIM_0829","CHRONIC OBSTRUCTIVE PULMONARY DISEASE","CHRONIC OBSTRUCTIVE PULMONARY DISEASE","HLT_0497","HLGT_0242","SIGNIFICANT PRE-EXISTING CONDITION","RESPIRATORY, THORACIC AND MEDIASTINAL DISORDERS",1,"SCREENING 1","01-MAY-2014",""],[843,"CDISCPILOT01","705","1018","","ALZHEIMER'S DISEASE","","","","","PRIMARY DIAGNOSIS","",null,"SCREENING 1","30-JUN-2013","21-NOV-2009"],[844,"CDISCPILOT01","705","1018","","VERBATIM_0754","EAR OPERATION","EAR OPERATION","HLT_0295","HLGT_0002","HISTORICAL DIAGNOSIS","SURGICAL AND MEDICAL PROCEDURES",null,"SCREENING 1","30-JUN-2013","1998"],[845,"CDISCPILOT01","705","1018","","VERBATIM_1775","APPENDICECTOMY","APPENDECTOMY","HLT_0707","HLGT_0363","HISTORICAL DIAGNOSIS","SURGICAL AND MEDICAL PROCEDURES",null,"SCREENING 1","30-JUN-2013","1961"],[846,"CDISCPILOT01","705","1018","E01","VERBATIM_0310","GASTRITIS","CHRONIC GASTRITIS","HLT_0060","HLGT_0561","SIGNIFICANT PRE-EXISTING CONDITION","GASTROINTESTINAL DISORDERS",1,"SCREENING 1","30-JUN-2013",""],[847,"CDISCPILOT01","705","1031","","ALZHEIMER'S DISEASE","","","","","PRIMARY DIAGNOSIS","",null,"SCREENING 1","17-NOV-2013","25-NOV-2010"],[848,"CDISCPILOT01","705","1031","","VERBATIM_0936","HYSTERECTOMY","HYSTERECTOMY","HLT_0675","HLGT_0657","HISTORICAL DIAGNOSIS","SURGICAL AND MEDICAL PROCEDURES",null,"SCREENING 1","17-NOV-2013","2001"],[849,"CDISCPILOT01","705","1031","E01","VERBATIM_0342","HYPERTENSION","HYPERTENSION","HLT_0228","HLGT_0476","SIGNIFICANT PRE-EXISTING CONDITION","VASCULAR DISORDERS",1,"SCREENING 1","17-NOV-2013",""],[850,"CDISCPILOT01","705","1059","","ALZHEIMER'S DISEASE","","","","","PRIMARY DIAGNOSIS","",null,"SCREENING 1","02-AUG-2013","20-JUL-2009"],[851,"CDISCPILOT01","705","1059","","VERBATIM_0936","HYSTERECTOMY","HYSTERECTOMY","HLT_0675","HLGT_0657","HISTORICAL DIAGNOSIS","SURGICAL AND MEDICAL PROCEDURES",null,"SCREENING 1","02-AUG-2013","1994"],[852,"CDISCPILOT01","705","1059","E01","VERBATIM_1428","MITRAL VALVE PROLAPSE","MITRAL VALVE PROLAPSE","HLT_0731","HLGT_0411","SIGNIFICANT PRE-EXISTING CONDITION","CARDIAC DISORDERS",1,"SCREENING 1","02-AUG-2013",""],[853,"CDISCPILOT01","705","1186","","ALZHEIMER'S DISEASE","","","","","PRIMARY DIAGNOSIS","",null,"SCREENING 1","03-JAN-2014","03-JUL-2011"],[854,"CDISCPILOT01","705","1186","","VERBATIM_0936","HYSTERECTOMY","HYSTERECTOMY","HLT_0675","HLGT_0657","HISTORICAL DIAGNOSIS","SURGICAL AND MEDICAL PROCEDURES",null,"SCREENING 1","03-JAN-2014","1987"],[855,"CDISCPILOT01","705","1186","E01","VERBATIM_1424","OSTEITIS DEFORMANS","PAGET'S DISEASE","HLT_0459","HLGT_0692","SIGNIFICANT PRE-EXISTING CONDITION","MUSCULOSKELETAL AND CONNECTIVE TISSUE DISORDERS",1,"SCREENING 1","03-JAN-2014",""],[856,"CDISCPILOT01","705","1199","","ALZHEIMER'S DISEASE","","","","","PRIMARY DIAGNOSIS","",null,"SCREENING 1","11-SEP-2013","08-SEP-2007"],[857,"CDISCPILOT01","705","1199","","VERBATIM_0211","TRANSURETHRAL PROSTATECTOMY","TRANSURETHRAL PROSTATECTOMY","HLT_0551","HLGT_0320","HISTORICAL DIAGNOSIS","SURGICAL AND MEDICAL PROCEDURES",null,"SCREENING 1","11-SEP-2013","2005"],[858,"CDISCPILOT01","705","1199","","VERBATIM_0601","LAPAROSCOPY","LAPAROSCOPY","HLT_0306","HLGT_0347","HISTORICAL DIAGNOSIS","INVESTIGATIONS",null,"SCREENING 1","11-SEP-2013","1987"],[859,"CDISCPILOT01","705","1199","","VERBATIM_0722","HERNIA REPAIR","HERNIA REPAIR","HLT_0766","HLGT_0696","HISTORICAL DIAGNOSIS","SURGICAL AND MEDICAL PROCEDURES",null,"SCREENING 1","11-SEP-2013","1991"],[860,"CDISCPILOT01","705","1199","","VERBATIM_1187","HAEMORRHOID OPERATION","HEMORRHOIDECTOMY","HLT_0300","HLGT_0468","HISTORICAL DIAGNOSIS","SURGICAL AND MEDICAL PROCEDURES",null,"SCREENING 1","11-SEP-2013","1989"],[861,"CDISCPILOT01","705","1199","E01","VERBATIM_1270","MUSCLE SPASMS","CRAMPS LEG","HLT_0078","HLGT_0750","SIGNIFICANT PRE-EXISTING CONDITION","MUSCULOSKELETAL AND CONNECTIVE TISSUE DISORDERS",1,"SCREENING 1","11-SEP-2013",""],[862,"CDISCPILOT01","705","1199","E02","VERBATIM_0289","INSOMNIA","CHRONIC INSOMNIA","HLT_0297","HLGT_0469","SIGNIFICANT PRE-EXISTING CONDITION","PSYCHIATRIC DISORDERS",1,"SCREENING 1","11-SEP-2013",""],[863,"CDISCPILOT01","705","1280","","ALZHEIMER'S DISEASE","","","","","PRIMARY DIAGNOSIS","",null,"SCREENING 1","11-JAN-2014","04-JAN-2013"],[864,"CDISCPILOT01","705","1280","","VERBATIM_1187","HAEMORRHOID OPERATION","HEMORRHOIDECTOMY","HLT_0300","HLGT_0468","HISTORICAL DIAGNOSIS","SURGICAL AND MEDICAL PROCEDURES",null,"SCREENING 1","11-JAN-2014","1994"],[865,"CDISCPILOT01","705","1281","","ALZHEIMER'S DISEASE","","","","","PRIMARY DIAGNOSIS","",null,"SCREENING 1","26-NOV-2013","05-NOV-2012"],[866,"CDISCPILOT01","705","1281","E01","VERBATIM_1309","ARTHRITIS","ARTHRITIS","HLT_0019","HLGT_0587","SIGNIFICANT PRE-EXISTING CONDITION","MUSCULOSKELETAL AND CONNECTIVE TISSUE DISORDERS",1,"SCREENING 1","26-NOV-2013",""],[867,"CDISCPILOT01","705","1281","E02","VERBATIM_0875","DIABETES MELLITUS","DIABETES","HLT_0447","HLGT_0572","SIGNIFICANT PRE-EXISTING CONDITION","METABOLISM AND NUTRITION DISORDERS",1,"SCREENING 1","26-NOV-2013",""],[868,"CDISCPILOT01","705","1281","E03","VERBATIM_0308","GLAUCOMA","GLAUCOMA","HLT_0556","HLGT_0734","SIGNIFICANT PRE-EXISTING CONDITION","EYE DISORDERS",1,"SCREENING 1","26-NOV-2013",""],[869,"CDISCPILOT01","705","1282","","ALZHEIMER'S DISEASE","","","","","PRIMARY DIAGNOSIS","",null,"SCREENING 1","23-DEC-2012","06-DEC-2006"],[870,"CDISCPILOT01","705","1292","","ALZHEIMER'S DISEASE","","","","","PRIMARY DIAGNOSIS","",null,"SCREENING 1","11-OCT-2013","28-SEP-2012"],[871,"CDISCPILOT01","705","1292","","VERBATIM_0489","YAWS","YAWS","HLT_0266","HLGT_0690","HISTORICAL DIAGNOSIS","INFECTIONS AND INFESTATIONS",null,"SCREENING 1","11-OCT-2013",""],[872,"CDISCPILOT01","705","1303","","ALZHEIMER'S DISEASE","","","","","PRIMARY DIAGNOSIS","",null,"SCREENING 1","10-DEC-2013","15-DEC-2010"],[873,"CDISCPILOT01","705","1303","E01","VERBATIM_0875","DIABETES MELLITUS","DIABETES","HLT_0447","HLGT_0572","SIGNIFICANT PRE-EXISTING CONDITION","METABOLISM AND NUTRITION DISORDERS",1,"SCREENING 1","10-DEC-2013",""],[874,"CDISCPILOT01","705","1310","","ALZHEIMER'S DISEASE","","","","","PRIMARY DIAGNOSIS","",null,"SCREENING 1","26-OCT-2013","30-OCT-2011"],[875,"CDISCPILOT01","705","1310","E01","VERBATIM_0308","GLAUCOMA","GLAUCOMA","HLT_0556","HLGT_0734","SIGNIFICANT PRE-EXISTING CONDITION","EYE DISORDERS",1,"SCREENING 1","26-OCT-2013",""],[876,"CDISCPILOT01","705","1349","","ALZHEIMER'S DISEASE","","","","","PRIMARY DIAGNOSIS","",null,"SCREENING 1","24-FEB-2013","23-MAR-2007"],[877,"CDISCPILOT01","705","1349","E01","VERBATIM_1309","ARTHRITIS","ARTHRITIS","HLT_0019","HLGT_0587","SIGNIFICANT PRE-EXISTING CONDITION","MUSCULOSKELETAL AND CONNECTIVE TISSUE DISORDERS",3,"SCREENING 1","24-FEB-2013",""],[878,"CDISCPILOT01","705","1349","E02","VERBATIM_0342","HYPERTENSION","HYPERTENSION","HLT_0228","HLGT_0476","SIGNIFICANT PRE-EXISTING CONDITION","VASCULAR DISORDERS",1,"SCREENING 1","24-FEB-2013",""],[879,"CDISCPILOT01","705","1377","","ALZHEIMER'S DISEASE","","","","","PRIMARY DIAGNOSIS","",null,"SCREENING 1","29-DEC-2013","05-JAN-2012"],[880,"CDISCPILOT01","705","1377","","VERBATIM_0198","OOPHORECTOMY PARTIAL","PARTIAL OOPHORECTOMY","HLT_0534","HLGT_0027","HISTORICAL DIAGNOSIS","SURGICAL AND MEDICAL PROCEDURES",null,"SCREENING 1","29-DEC-2013","1973"],[881,"CDISCPILOT01","705","1377","","VERBATIM_1775","APPENDICECTOMY","APPENDECTOMY","HLT_0707","HLGT_0363","HISTORICAL DIAGNOSIS","SURGICAL AND MEDICAL PROCEDURES",null,"SCREENING 1","29-DEC-2013","1963"],[882,"CDISCPILOT01","705","1382","","ALZHEIMER'S DISEASE","","","","","PRIMARY DIAGNOSIS","",null,"SCREENING 1","09-MAY-2013","03-MAY-2012"],[883,"CDISCPILOT01","705","1382","","VERBATIM_0722","HERNIA REPAIR","HERNIA REPAIR","HLT_0766","HLGT_0696","HISTORICAL DIAGNOSIS","SURGICAL AND MEDICAL PROCEDURES",null,"SCREENING 1","09-MAY-2013","1973"],[884,"CDISCPILOT01","705","1382","E01","VERBATIM_0342","HYPERTENSION","HYPERTENSION","HLT_0228","HLGT_0476","SIGNIFICANT PRE-EXISTING CONDITION","VASCULAR DISORDERS",1,"SCREENING 1","09-MAY-2013",""],[885,"CDISCPILOT01","705","1382","E02","VERBATIM_0154","PROSTATE CANCER","PROSTATE CANCER","HLT_0412","HLGT_0190","SIGNIFICANT PRE-EXISTING CONDITION","NEOPLASMS BENIGN, MALIGNANT AND UNSPECIFIED (INCL CYSTS AND POLYPS)",1,"SCREENING 1","09-MAY-2013",""],[886,"CDISCPILOT01","705","1393","","ALZHEIMER'S DISEASE","","","","","PRIMARY DIAGNOSIS","",null,"SCREENING 1","02-SEP-2012","08-SEP-2004"],[887,"CDISCPILOT01","705","1393","","VERBATIM_0198","OOPHORECTOMY PARTIAL","PARTIAL OOPHORECTOMY","HLT_0534","HLGT_0027","HISTORICAL DIAGNOSIS","SURGICAL AND MEDICAL PROCEDURES",null,"SCREENING 1","02-SEP-2012","1972"],[888,"CDISCPILOT01","705","1393","E02","VERBATIM_0353","BUNDLE BRANCH BLOCK RIGHT","RIGHT BUNDLE BRANCH BLOCK","HLT_0751","HLGT_0597","SIGNIFICANT PRE-EXISTING CONDITION","CARDIAC DISORDERS",1,"SCREENING 1","02-SEP-2012",""],[889,"CDISCPILOT01","705","1393","E03","VERBATIM_1263","ATRIAL HYPERTROPHY","LEFT ATRIAL HYPERTROPHY","HLT_0271","HLGT_0067","SIGNIFICANT PRE-EXISTING CONDITION","CARDIAC DISORDERS",1,"SCREENING 1","02-SEP-2012",""],[890,"CDISCPILOT01","705","1431","","ALZHEIMER'S DISEASE","","","","","PRIMARY DIAGNOSIS","",null,"SCREENING 1","16-JUN-2013","04-JUL-2010"],[891,"CDISCPILOT01","705","1431","","VERBATIM_0308","GLAUCOMA","GLAUCOMA","HLT_0556","HLGT_0734","HISTORICAL DIAGNOSIS","EYE DISORDERS",null,"SCREENING 1","16-JUN-2013","2007"],[892,"CDISCPILOT01","705","1431","","VERBATIM_0311","BENIGN BREAST LUMP REMOVAL","BENIGN BREAST LUMP REMOVAL","HLT_0176","HLGT_0553","HISTORICAL DIAGNOSIS","SURGICAL AND MEDICAL PROCEDURES",null,"SCREENING 1","16-JUN-2013","1994"],[893,"CDISCPILOT01","705","1431","","VERBATIM_0936","HYSTERECTOMY","HYSTERECTOMY","HLT_0675","HLGT_0657","HISTORICAL DIAGNOSIS","SURGICAL AND MEDICAL PROCEDURES",null,"SCREENING 1","16-JUN-2013","1995"],[894,"CDISCPILOT01","705","1431","","VERBATIM_0962","SPINAL LAMINECTOMY","LAMINECTOMY SPINAL","HLT_0132","HLGT_0722","HISTORICAL DIAGNOSIS","SURGICAL AND MEDICAL PROCEDURES",null,"SCREENING 1","16-JUN-2013","2003"],[895,"CDISCPILOT01","705","1431","E01","VERBATIM_1525","THYROID CYST","CYST OF THYROID","HLT_0257","HLGT_0308","SIGNIFICANT PRE-EXISTING CONDITION","ENDOCRINE DISORDERS",1,"SCREENING 1","16-JUN-2013",""],[896,"CDISCPILOT01","705","1431","E02","VERBATIM_0085","INSOMNIA","INSOMNIA","HLT_0297","HLGT_0469","SIGNIFICANT PRE-EXISTING CONDITION","PSYCHIATRIC DISORDERS",1,"SCREENING 1","16-JUN-2013",""],[897,"CDISCPILOT01","705","1431","E03","VERBATIM_0443","CONSTIPATION","CONSTIPATION","HLT_0402","HLGT_0635","SIGNIFICANT PRE-EXISTING CONDITION","GASTROINTESTINAL DISORDERS",1,"SCREENING 1","16-JUN-2013",""],[898,"CDISCPILOT01","706","1041","","ALZHEIMER'S DISEASE","","","","","PRIMARY DIAGNOSIS","",null,"SCREENING 1","21-DEC-2013","18-NOV-2011"],[899,"CDISCPILOT01","706","1041","E02","VERBATIM_1033","ANXIETY","ANXIETY ATTACK","HLT_0559","HLGT_0570","SIGNIFICANT PRE-EXISTING CONDITION","PSYCHIATRIC DISORDERS",1,"SCREENING 1","21-DEC-2013",""],[900,"CDISCPILOT01","706","1041","E04","VERBATIM_1009","MENOPAUSE","MENOPAUSE","HLT_0723","HLGT_0632","SIGNIFICANT PRE-EXISTING CONDITION","SOCIAL CIRCUMSTANCES",1,"SCREENING 1","21-DEC-2013",""],[901,"CDISCPILOT01","706","1041","E05","VERBATIM_1512","HYPOTHYROIDISM","HYPOTHYROIDISM","HLT_0454","HLGT_0558","SIGNIFICANT PRE-EXISTING CONDITION","ENDOCRINE DISORDERS",1,"SCREENING 1","21-DEC-2013",""],[902,"CDISCPILOT01","706","1041","E06","VERBATIM_0342","HYPERTENSION","HYPERTENSION","HLT_0228","HLGT_0476","SIGNIFICANT PRE-EXISTING CONDITION","VASCULAR DISORDERS",1,"SCREENING 1","21-DEC-2013",""],[903,"CDISCPILOT01","706","1049","","ALZHEIMER'S DISEASE","","","","","PRIMARY DIAGNOSIS","",null,"SCREENING 1","30-APR-2013","02-MAY-2010"],[904,"CDISCPILOT01","706","1049","","VERBATIM_0432","DEPRESSION","DEPRESSION","HLT_0167","HLGT_0582","HISTORICAL DIAGNOSIS","PSYCHIATRIC DISORDERS",null,"SCREENING 1","30-APR-2013","APR-2013"],[905,"CDISCPILOT01","706","1049","","VERBATIM_0667","MASS EXCISION","LUMP EXCISION","HLT_0184","HLGT_0194","HISTORICAL DIAGNOSIS","SURGICAL AND MEDICAL PROCEDURES",null,"SCREENING 1","30-APR-2013","2000"],[906,"CDISCPILOT01","706","1049","","VERBATIM_1788","CHEMOTHERAPY","CHEMOTHERAPY","HLT_0405","HLGT_0114","HISTORICAL DIAGNOSIS","SURGICAL AND MEDICAL PROCEDURES",null,"SCREENING 1","30-APR-2013","2000"],[907,"CDISCPILOT01","706","1384","","ALZHEIMER'S DISEASE","","","","","PRIMARY DIAGNOSIS","",null,"SCREENING 1","25-AUG-2012","04-MAY-2008"],[908,"CDISCPILOT01","706","1384","","VERBATIM_0699","HIATUS HERNIA","HIATAL HERNIA","HLT_0159","HLGT_0109","HISTORICAL DIAGNOSIS","GASTROINTESTINAL DISORDERS",null,"SCREENING 1","25-AUG-2012","NOV-2010"],[909,"CDISCPILOT01","706","1384","","VERBATIM_0836","TUMOUR EXCISION","TUMOUR EXCISION","HLT_0309","HLGT_0422","HISTORICAL DIAGNOSIS","SURGICAL AND MEDICAL PROCEDURES",null,"SCREENING 1","25-AUG-2012","1971"],[910,"CDISCPILOT01","706","1384","","VERBATIM_1275","HERNIA REPAIR","HERNIA REPAIR","HLT_0766","HLGT_0696","HISTORICAL DIAGNOSIS","SURGICAL AND MEDICAL PROCEDURES",null,"SCREENING 1","25-AUG-2012","JUL-2011"],[911,"CDISCPILOT01","706","1384","","VERBATIM_1795","CHOLECYSTECTOMY","CHOLECYSTECTOMY","HLT_0149","HLGT_0074","HISTORICAL DIAGNOSIS","SURGICAL AND MEDICAL PROCEDURES",null,"SCREENING 1","25-AUG-2012","1996"],[912,"CDISCPILOT01","706","1384","E02","VERBATIM_1019","LIPOMA","LIPOMA","HLT_0487","HLGT_0591","SIGNIFICANT PRE-EXISTING CONDITION","NEOPLASMS BENIGN, MALIGNANT AND UNSPECIFIED (INCL CYSTS AND POLYPS)",1,"SCREENING 1","25-AUG-2012",""],[913,"CDISCPILOT01","706","1384","E07","VERBATIM_1512","HYPOTHYROIDISM","HYPOTHYROIDISM","HLT_0454","HLGT_0558","SIGNIFICANT PRE-EXISTING CONDITION","ENDOCRINE DISORDERS",1,"SCREENING 1","25-AUG-2012",""],[914,"CDISCPILOT01","706","1384","E08","VERBATIM_0342","HYPERTENSION","HYPERTENSION","HLT_0228","HLGT_0476","SIGNIFICANT PRE-EXISTING CONDITION","VASCULAR DISORDERS",1,"SCREENING 1","25-AUG-2012",""],[915,"CDISCPILOT01","706","1384","E09","VERBATIM_0841","DYSPEPSIA","HEARTBURN","HLT_0244","HLGT_0716","SIGNIFICANT PRE-EXISTING CONDITION","GASTROINTESTINAL DISORDERS",1,"SCREENING 1","25-AUG-2012",""],[916,"CDISCPILOT01","706","1384","E10","VERBATIM_1009","MENOPAUSE","MENOPAUSE","HLT_0723","HLGT_0632","SIGNIFICANT PRE-EXISTING CONDITION","SOCIAL CIRCUMSTANCES",1,"SCREENING 1","25-AUG-2012",""],[917,"CDISCPILOT01","707","1037","","ALZHEIMER'S DISEASE","","","","","PRIMARY DIAGNOSIS","",null,"SCREENING 1","12-DEC-2013","02-JAN-2009"],[918,"CDISCPILOT01","707","1037","","VERBATIM_0418","MIGRAINE","MIGRAINE","HLT_0547","HLGT_0317","HISTORICAL DIAGNOSIS","NERVOUS SYSTEM DISORDERS",null,"SCREENING 1","12-DEC-2013","1982"],[919,"CDISCPILOT01","707","1037","","VERBATIM_1793","BREAST CYST","BREAST CYST","HLT_0455","HLGT_0548","HISTORICAL DIAGNOSIS","REPRODUCTIVE SYSTEM AND BREAST DISORDERS",null,"SCREENING 1","12-DEC-2013","1987"],[920,"CDISCPILOT01","707","1037","E01","VERBATIM_1362","LABYRINTHITIS","LABYRINTHITIS","HLT_0676","HLGT_0023","SIGNIFICANT PRE-EXISTING CONDITION","INFECTIONS AND INFESTATIONS",1,"SCREENING 1","12-DEC-2013",""],[921,"CDISCPILOT01","707","1037","E02","VERBATIM_1354","RHINITIS","RHINITIS","HLT_0239","HLGT_0322","SIGNIFICANT PRE-EXISTING CONDITION","INFECTIONS AND INFESTATIONS",1,"SCREENING 1","12-DEC-2013",""],[922,"CDISCPILOT01","707","1037","E03","VERBATIM_0799","CARDIAC VALVE DISEASE","HEART VALVE DISORDERS","HLT_0744","HLGT_0596","SIGNIFICANT PRE-EXISTING CONDITION","CARDIAC DISORDERS",1,"SCREENING 1","12-DEC-2013",""],[923,"CDISCPILOT01","707","1037","E04","VERBATIM_0342","HYPERTENSION","HYPERTENSION","HLT_0228","HLGT_0476","SIGNIFICANT PRE-EXISTING CONDITION","VASCULAR DISORDERS",1,"SCREENING 1","12-DEC-2013",""],[924,"CDISCPILOT01","707","1037","E05","VERBATIM_0809","OSTEOARTHRITIS","OSTEOARTHRITIS","HLT_0247","HLGT_0462","SIGNIFICANT PRE-EXISTING CONDITION","MUSCULOSKELETAL AND CONNECTIVE TISSUE DISORDERS",1,"SCREENING 1","12-DEC-2013",""],[925,"CDISCPILOT01","707","1037","E06","VERBATIM_0432","DEPRESSION","DEPRESSION","HLT_0167","HLGT_0582","SIGNIFICANT PRE-EXISTING CONDITION","PSYCHIATRIC DISORDERS",1,"SCREENING 1","12-DEC-2013",""],[926,"CDISCPILOT01","707","1037","E07","VERBATIM_1512","HYPOTHYROIDISM","HYPOTHYROIDISM","HLT_0454","HLGT_0558","SIGNIFICANT PRE-EXISTING CONDITION","ENDOCRINE DISORDERS",1,"SCREENING 1","12-DEC-2013",""],[927,"CDISCPILOT01","707","1206","","ALZHEIMER'S DISEASE","","","","","PRIMARY DIAGNOSIS","",null,"SCREENING 1","20-OCT-2013","23-AUG-2012"],[928,"CDISCPILOT01","707","1206","","VERBATIM_0263","MASTOIDITIS","MASTOIDITIS","HLT_0190","HLGT_0361","HISTORICAL DIAGNOSIS","INFECTIONS AND INFESTATIONS",null,"SCREENING 1","20-OCT-2013","1956"],[929,"CDISCPILOT01","707","1206","E02","VERBATIM_0515","HYPERLIPIDAEMIA","HYPERLIPIDEMIA","HLT_0759","HLGT_0061","SIGNIFICANT PRE-EXISTING CONDITION","METABOLISM AND NUTRITION DISORDERS",1,"SCREENING 1","20-OCT-2013",""],[930,"CDISCPILOT01","708","1019","","ALZHEIMER'S DISEASE","","","","","PRIMARY DIAGNOSIS","",null,"SCREENING 1","10-DEC-2013","19-DEC-2006"],[931,"CDISCPILOT01","708","1019","","VERBATIM_1693","NEPHRECTOMY","NEPHRECTOMY","HLT_0152","HLGT_0642","HISTORICAL DIAGNOSIS","SURGICAL AND MEDICAL PROCEDURES",null,"SCREENING 1","10-DEC-2013","1977"],[932,"CDISCPILOT01","708","1032","","ALZHEIMER'S DISEASE","","","","","PRIMARY DIAGNOSIS","",null,"SCREENING 1","02-FEB-2013","16-JUL-2002"],[933,"CDISCPILOT01","708","1032","E01","VERBATIM_1769","SINUSITIS","SINUSITIS","HLT_0262","HLGT_0249","SIGNIFICANT PRE-EXISTING CONDITION","INFECTIONS AND INFESTATIONS",1,"SCREENING 1","02-FEB-2013",""],[934,"CDISCPILOT01","708","1032","E02","VERBATIM_1373","CYST","CYST","HLT_0763","HLGT_0341","SIGNIFICANT PRE-EXISTING CONDITION","GENERAL DISORDERS AND ADMINISTRATION SITE CONDITIONS",1,"SCREENING 1","02-FEB-2013",""],[935,"CDISCPILOT01","708","1032","E03","VERBATIM_1309","ARTHRITIS","ARTHRITIS","HLT_0019","HLGT_0587","SIGNIFICANT PRE-EXISTING CONDITION","MUSCULOSKELETAL AND CONNECTIVE TISSUE DISORDERS",1,"SCREENING 1","02-FEB-2013",""],[936,"CDISCPILOT01","708","1032","E04","VERBATIM_0377","INSOMNIA","INSOMNIA","HLT_0297","HLGT_0469","SIGNIFICANT PRE-EXISTING CONDITION","PSYCHIATRIC DISORDERS",1,"SCREENING 1","02-FEB-2013",""],[937,"CDISCPILOT01","708","1084","","ALZHEIMER'S DISEASE","","","","","PRIMARY DIAGNOSIS","",null,"SCREENING 1","01-MAY-2013","26-APR-2010"],[938,"CDISCPILOT01","708","1084","E01","VERBATIM_0830","MYOCARDIAL INFARCTION","SEPTAL MYOCARDIAL INFARCTION","HLT_0649","HLGT_0688","SIGNIFICANT PRE-EXISTING CONDITION","CARDIAC DISORDERS",1,"SCREENING 1","01-MAY-2013",""],[939,"CDISCPILOT01","708","1084","E03","VERBATIM_1512","HYPOTHYROIDISM","HYPOTHYROIDISM","HLT_0454","HLGT_0558","SIGNIFICANT PRE-EXISTING CONDITION","ENDOCRINE DISORDERS",1,"SCREENING 1","01-MAY-2013",""],[940,"CDISCPILOT01","708","1084","E04","VERBATIM_0308","GLAUCOMA","GLAUCOMA","HLT_0556","HLGT_0734","SIGNIFICANT PRE-EXISTING CONDITION","EYE DISORDERS",1,"SCREENING 1","01-MAY-2013",""],[941,"CDISCPILOT01","708","1084","E05","VERBATIM_0903","BUNDLE BRANCH BLOCK LEFT","LEFT ANTERIOR HEMIBLOCK","HLT_0281","HLGT_0721","SIGNIFICANT PRE-EXISTING CONDITION","CARDIAC DISORDERS",1,"SCREENING 1","01-MAY-2013",""],[942,"CDISCPILOT01","708","1087","","ALZHEIMER'S DISEASE","","","","","PRIMARY DIAGNOSIS","",null,"SCREENING 1","06-OCT-2012","02-SEP-2008"],[943,"CDISCPILOT01","708","1087","","VERBATIM_0864","EYE OPERATION","EYE OPERATION","HLT_0024","HLGT_0552","HISTORICAL DIAGNOSIS","SURGICAL AND MEDICAL PROCEDURES",null,"SCREENING 1","06-OCT-2012","JAN-2007"],[944,"CDISCPILOT01","708","1087","","VERBATIM_0936","HYSTERECTOMY","HYSTERECTOMY","HLT_0675","HLGT_0657","HISTORICAL DIAGNOSIS","SURGICAL AND MEDICAL PROCEDURES",null,"SCREENING 1","06-OCT-2012","AUG-2008"],[945,"CDISCPILOT01","708","1087","","VERBATIM_1136","EYE OPERATION","EYE OPERATION","HLT_0024","HLGT_0552","HISTORICAL DIAGNOSIS","SURGICAL AND MEDICAL PROCEDURES",null,"SCREENING 1","06-OCT-2012","JUL-2007"],[946,"CDISCPILOT01","708","1087","","VERBATIM_1324","CHOLECYSTECTOMY","CHOLECYSTECTOMY","HLT_0149","HLGT_0074","HISTORICAL DIAGNOSIS","SURGICAL AND MEDICAL PROCEDURES",null,"SCREENING 1","06-OCT-2012","AUG-2008"],[947,"CDISCPILOT01","708","1087","","VERBATIM_1775","APPENDICECTOMY","APPENDECTOMY","HLT_0707","HLGT_0363","HISTORICAL DIAGNOSIS","SURGICAL AND MEDICAL PROCEDURES",null,"SCREENING 1","06-OCT-2012","AUG-2008"],[948,"CDISCPILOT01","708","1087","E01","VERBATIM_0342","HYPERTENSION","HYPERTENSION","HLT_0228","HLGT_0476","SIGNIFICANT PRE-EXISTING CONDITION","VASCULAR DISORDERS",1,"SCREENING 1","06-OCT-2012",""],[949,"CDISCPILOT01","708","1158","","ALZHEIMER'S DISEASE","","","","","PRIMARY DIAGNOSIS","",null,"SCREENING 1","01-FEB-2014","01-AUG-2010"],[950,"CDISCPILOT01","708","1158","","VERBATIM_0218","KNEE OPERATION","KNEE SURGERY NOS","HLT_0319","HLGT_0033","HISTORICAL DIAGNOSIS","SURGICAL AND MEDICAL PROCEDURES",null,"SCREENING 1","01-FEB-2014","2003"],[951,"CDISCPILOT01","708","1158","","VERBATIM_0259","RENAL DISORDER","RENAL DISORDER","HLT_0608","HLGT_0556","HISTORICAL DIAGNOSIS","RENAL AND URINARY DISORDERS",null,"SCREENING 1","01-FEB-2014","1957"],[952,"CDISCPILOT01","708","1158","","VERBATIM_0936","HYSTERECTOMY","HYSTERECTOMY","HLT_0675","HLGT_0657","HISTORICAL DIAGNOSIS","SURGICAL AND MEDICAL PROCEDURES",null,"SCREENING 1","01-FEB-2014","1998"],[953,"CDISCPILOT01","708","1158","E01","VERBATIM_0342","HYPERTENSION","HYPERTENSION","HLT_0228","HLGT_0476","SIGNIFICANT PRE-EXISTING CONDITION","VASCULAR DISORDERS",1,"SCREENING 1","01-FEB-2014",""],[954,"CDISCPILOT01","708","1158","E02","VERBATIM_1662","RHEUMATOID ARTHRITIS","RHEUMATOID ARTHRITIS","HLT_0390","HLGT_0743","SIGNIFICANT PRE-EXISTING CONDITION","MUSCULOSKELETAL AND CONNECTIVE TISSUE DISORDERS",1,"SCREENING 1","01-FEB-2014",""],[955,"CDISCPILOT01","708","1158","E03","VERBATIM_1544","DRY SKIN","DRY SKIN","HLT_0028","HLGT_0096","SIGNIFICANT PRE-EXISTING CONDITION","SKIN AND SUBCUTANEOUS TISSUE DISORDERS",1,"SCREENING 1","01-FEB-2014",""],[956,"CDISCPILOT01","708","1158","E04","VERBATIM_1292","KYPHOSIS","KYPHOSIS","HLT_0690","HLGT_0505","SIGNIFICANT PRE-EXISTING CONDITION","MUSCULOSKELETAL AND CONNECTIVE TISSUE DISORDERS",1,"SCREENING 1","01-FEB-2014",""],[957,"CDISCPILOT01","708","1171","","ALZHEIMER'S DISEASE","","","","","PRIMARY DIAGNOSIS","",null,"SCREENING 1","25-NOV-2012","24-SEP-2010"],[958,"CDISCPILOT01","708","1171","E01","VERBATIM_1530","MACULAR DEGENERATION","MACULAR DEGENERATION","HLT_0401","HLGT_0370","SIGNIFICANT PRE-EXISTING CONDITION","EYE DISORDERS",1,"SCREENING 1","25-NOV-2012",""],[959,"CDISCPILOT01","708","1171","E02","VERBATIM_1272","HYPERCHOLESTEROLAEMIA","HYPERCHOLESTEREMIA","HLT_0025","HLGT_0703","SIGNIFICANT PRE-EXISTING CONDITION","METABOLISM AND NUTRITION DISORDERS",1,"SCREENING 1","25-NOV-2012",""],[960,"CDISCPILOT01","708","1171","E03","VERBATIM_0732","OSTEOARTHRITIS","OSTEOARTHRITIS","HLT_0247","HLGT_0462","SIGNIFICANT PRE-EXISTING CONDITION","MUSCULOSKELETAL AND CONNECTIVE TISSUE DISORDERS",1,"SCREENING 1","25-NOV-2012",""],[961,"CDISCPILOT01","708","1171","E04","VERBATIM_0443","CONSTIPATION","CONSTIPATION","HLT_0402","HLGT_0635","SIGNIFICANT PRE-EXISTING CONDITION","GASTROINTESTINAL DISORDERS",1,"SCREENING 1","25-NOV-2012",""],[962,"CDISCPILOT01","708","1178","","ALZHEIMER'S DISEASE","","","","","PRIMARY DIAGNOSIS","",null,"SCREENING 1","13-DEC-2013","10-AUG-2008"],[963,"CDISCPILOT01","708","1178","E02","VERBATIM_0342","HYPERTENSION","HYPERTENSION","HLT_0228","HLGT_0476","SIGNIFICANT PRE-EXISTING CONDITION","VASCULAR DISORDERS",1,"SCREENING 1","13-DEC-2013",""],[964,"CDISCPILOT01","708","1178","E07","VERBATIM_1723","VENTRICULAR SEPTAL DEFECT","VENTRICULAR SEPTAL DEFECT","HLT_0589","HLGT_0747","SIGNIFICANT PRE-EXISTING CONDITION","CONGENITAL, FAMILIAL AND GENETIC DISORDERS",1,"SCREENING 1","13-DEC-2013",""],[965,"CDISCPILOT01","708","1213","","ALZHEIMER'S DISEASE","","","","","PRIMARY DIAGNOSIS","",null,"SCREENING 1","01-FEB-2013","06-FEB-2011"],[966,"CDISCPILOT01","708","1213","","VERBATIM_1045","ARRHYTHMIA","ARRHYTHMIA","HLT_0145","HLGT_0291","HISTORICAL DIAGNOSIS","CARDIAC DISORDERS",null,"SCREENING 1","01-FEB-2013","NOV-2011"],[967,"CDISCPILOT01","708","1213","E01","VERBATIM_0120","ANAEMIA","ANEMIA","HLT_0378","HLGT_0230","SIGNIFICANT PRE-EXISTING CONDITION","BLOOD AND LYMPHATIC SYSTEM DISORDERS",1,"SCREENING 1","01-FEB-2013",""],[968,"CDISCPILOT01","708","1213","E02","VERBATIM_0171","VITAMIN B12 DEFICIENCY","VITAMIN B12 DEFICIENCY","HLT_0173","HLGT_0563","SIGNIFICANT PRE-EXISTING CONDITION","METABOLISM AND NUTRITION DISORDERS",1,"SCREENING 1","01-FEB-2013",""],[969,"CDISCPILOT01","708","1216","","ALZHEIMER'S DISEASE","","","","",