{"creationDateTime":"2024-02-14T11:46:12","datasetJSONVersion":"1.0.0","fileOID":"CDISCPILOT01.sc","referenceData":{"studyOID":"CDISCPILOT01","metaDataVersionOID":"MDV.CDISCPILOT01","itemGroupData":{"IG.SC":{"records":254,"name":"SC","label":"Subject Characteristics (SC)","items":[{"OID":"ITEMGROUPDATASEQ","name":"ITEMGROUPDATASEQ","label":"Record Identifier","type":"integer"},{"OID":"IT.SC.STUDYID","name":"STUDYID","label":"Study Identifier","type":"string","length":12,"displayFormat":"."},{"OID":"IT.SC.SITEID","name":"SITEID","label":"Study Site Identifier","type":"string","length":3,"displayFormat":"."},{"OID":"IT.SC.SUBJID","name":"SUBJID","label":"Subject Identifier for the Study","type":"string","length":4,"displayFormat":"."},{"OID":"IT.SC.EDLEVEL_SCCAT","name":"EDLEVEL_SCCAT","label":"Education Category for Subject Characteristic","type":"string","length":9,"displayFormat":"."},{"OID":"IT.SC.EDLEVEL_SCTEST","name":"EDLEVEL_SCTEST","label":"Education Subject Characteristic","type":"string","length":18,"displayFormat":"."},{"OID":"IT.SC.EDLEVEL_SCORRES","name":"EDLEVEL_SCORRES","label":"Education Level Original Result","type":"string","length":2,"displayFormat":"."},{"OID":"IT.SC.EDLEVEL_SCORRESU","name":"EDLEVEL_SCORRESU","label":"Education Level Original Unit","type":"string","length":5,"displayFormat":"."},{"OID":"IT.SC.SCDAT","name":"SCDAT","label":"Date of Subject Characteristics Collection","type":"string","length":11,"displayFormat":"."},{"OID":"IT.SC.VISIT","name":"VISIT","label":"Visit Name","type":"string","length":19,"displayFormat":"."},{"OID":"IT.SC.VISDAT","name":"VISDAT","label":"Visit Date","type":"string","length":11,"displayFormat":"."}],"itemData":[[1,"CDISCPILOT01","701","1015","EDUCATION","EDUCATION LEVEL","16","YEARS","26-DEC-2013","SCREENING 1","26-DEC-2013"],[2,"CDISCPILOT01","701","1023","EDUCATION","EDUCATION LEVEL","14","YEARS","22-JUL-2012","SCREENING 1","22-JUL-2012"],[3,"CDISCPILOT01","701","1028","EDUCATION","EDUCATION LEVEL","16","YEARS","11-JUL-2013","SCREENING 1","11-JUL-2013"],[4,"CDISCPILOT01","701","1033","EDUCATION","EDUCATION LEVEL","12","YEARS","10-MAR-2014","SCREENING 1","10-MAR-2014"],[5,"CDISCPILOT01","701","1034","EDUCATION","EDUCATION LEVEL","9","YEARS","24-JUN-2014","SCREENING 1","24-JUN-2014"],[6,"CDISCPILOT01","701","1047","EDUCATION","EDUCATION LEVEL","8","YEARS","22-JAN-2013","SCREENING 1","22-JAN-2013"],[7,"CDISCPILOT01","701","1097","EDUCATION","EDUCATION LEVEL","18","YEARS","23-DEC-2013","SCREENING 1","23-DEC-2013"],[8,"CDISCPILOT01","701","1111","EDUCATION","EDUCATION LEVEL","22","YEARS","25-AUG-2012","SCREENING 1","25-AUG-2012"],[9,"CDISCPILOT01","701","1115","EDUCATION","EDUCATION LEVEL","12","YEARS","23-NOV-2012","SCREENING 1","23-NOV-2012"],[10,"CDISCPILOT01","701","1118","EDUCATION","EDUCATION LEVEL","14","YEARS","27-FEB-2014","SCREENING 1","27-FEB-2014"],[11,"CDISCPILOT01","701","1130","EDUCATION","EDUCATION LEVEL","12","YEARS","09-FEB-2014","SCREENING 1","09-FEB-2014"],[12,"CDISCPILOT01","701","1133","EDUCATION","EDUCATION LEVEL","10","YEARS","23-OCT-2012","SCREENING 1","23-OCT-2012"],[13,"CDISCPILOT01","701","1146","EDUCATION","EDUCATION LEVEL","16","YEARS","07-MAY-2013","SCREENING 1","07-MAY-2013"],[14,"CDISCPILOT01","701","1148","EDUCATION","EDUCATION LEVEL","15","YEARS","14-AUG-2013","SCREENING 1","14-AUG-2013"],[15,"CDISCPILOT01","701","1153","EDUCATION","EDUCATION LEVEL","6","YEARS","06-SEP-2013","SCREENING 1","06-SEP-2013"],[16,"CDISCPILOT01","701","1180","EDUCATION","EDUCATION LEVEL","16","YEARS","28-JAN-2013","SCREENING 1","28-JAN-2013"],[17,"CDISCPILOT01","701","1181","EDUCATION","EDUCATION LEVEL","15","YEARS","26-NOV-2013","SCREENING 1","26-NOV-2013"],[18,"CDISCPILOT01","701","1188","EDUCATION","EDUCATION LEVEL","16","YEARS","03-FEB-2013","SCREENING 1","03-FEB-2013"],[19,"CDISCPILOT01","701","1192","EDUCATION","EDUCATION LEVEL","12","YEARS","08-JUL-2012","SCREENING 1","08-JUL-2012"],[20,"CDISCPILOT01","701","1203","EDUCATION","EDUCATION LEVEL","13","YEARS","25-JAN-2013","SCREENING 1","25-JAN-2013"],[21,"CDISCPILOT01","701","1211","EDUCATION","EDUCATION LEVEL","12","YEARS","30-OCT-2012","SCREENING 1","30-OCT-2012"],[22,"CDISCPILOT01","701","1234","EDUCATION","EDUCATION LEVEL","18","YEARS","20-MAR-2013","SCREENING 1","20-MAR-2013"],[23,"CDISCPILOT01","701","1239","EDUCATION","EDUCATION LEVEL","11","YEARS","28-DEC-2013","SCREENING 1","28-DEC-2013"],[24,"CDISCPILOT01","701","1275","EDUCATION","EDUCATION LEVEL","12","YEARS","25-JAN-2014","SCREENING 1","25-JAN-2014"],[25,"CDISCPILOT01","701","1287","EDUCATION","EDUCATION LEVEL","14","YEARS","17-JAN-2014","SCREENING 1","17-JAN-2014"],[26,"CDISCPILOT01","701","1294","EDUCATION","EDUCATION LEVEL","16","YEARS","17-MAR-2013","SCREENING 1","17-MAR-2013"],[27,"CDISCPILOT01","701","1302","EDUCATION","EDUCATION LEVEL","15","YEARS","20-AUG-2013","SCREENING 1","20-AUG-2013"],[28,"CDISCPILOT01","701","1317","EDUCATION","EDUCATION LEVEL","20","YEARS","10-MAY-2014","SCREENING 1","10-MAY-2014"],[29,"CDISCPILOT01","701","1324","EDUCATION","EDUCATION LEVEL","18","YEARS","16-SEP-2012","SCREENING 1","16-SEP-2012"],[30,"CDISCPILOT01","701","1341","EDUCATION","EDUCATION LEVEL","24","YEARS","22-DEC-2012","SCREENING 1","22-DEC-2012"],[31,"CDISCPILOT01","701","1345","EDUCATION","EDUCATION LEVEL","15","YEARS","01-OCT-2013","SCREENING 1","01-OCT-2013"],[32,"CDISCPILOT01","701","1360","EDUCATION","EDUCATION LEVEL","10","YEARS","24-JUL-2013","SCREENING 1","24-JUL-2013"],[33,"CDISCPILOT01","701","1363","EDUCATION","EDUCATION LEVEL","13","YEARS","20-MAY-2013","SCREENING 1","20-MAY-2013"],[34,"CDISCPILOT01","701","1383","EDUCATION","EDUCATION LEVEL","12","YEARS","22-JAN-2013","SCREENING 1","22-JAN-2013"],[35,"CDISCPILOT01","701","1387","EDUCATION","EDUCATION LEVEL","12","YEARS","23-FEB-2014","SCREENING 1","23-FEB-2014"],[36,"CDISCPILOT01","701","1392","EDUCATION","EDUCATION LEVEL","16","YEARS","17-OCT-2012","SCREENING 1","17-OCT-2012"],[37,"CDISCPILOT01","701","1415","EDUCATION","EDUCATION LEVEL","10","YEARS","15-SEP-2013","SCREENING 1","15-SEP-2013"],[38,"CDISCPILOT01","701","1429","EDUCATION","EDUCATION LEVEL","12","YEARS","25-FEB-2013","SCREENING 1","25-FEB-2013"],[39,"CDISCPILOT01","701","1440","EDUCATION","EDUCATION LEVEL","18","YEARS","24-JUL-2013","SCREENING 1","24-JUL-2013"],[40,"CDISCPILOT01","701","1442","EDUCATION","EDUCATION LEVEL","12","YEARS","17-OCT-2013","SCREENING 1","17-OCT-2013"],[41,"CDISCPILOT01","701","1444","EDUCATION","EDUCATION LEVEL","14","YEARS","31-DEC-2012","SCREENING 1","31-DEC-2012"],[42,"CDISCPILOT01","702","1082","EDUCATION","EDUCATION LEVEL","18","YEARS","03-JUL-2013","SCREENING 1","03-JUL-2013"],[43,"CDISCPILOT01","703","1042","EDUCATION","EDUCATION LEVEL","12","YEARS","23-FEB-2013","SCREENING 1","23-FEB-2013"],[44,"CDISCPILOT01","703","1076","EDUCATION","EDUCATION LEVEL","10","YEARS","17-OCT-2013","SCREENING 1","17-OCT-2013"],[45,"CDISCPILOT01","703","1086","EDUCATION","EDUCATION LEVEL","17","YEARS","22-AUG-2012","SCREENING 1","22-AUG-2012"],[46,"CDISCPILOT01","703","1096","EDUCATION","EDUCATION LEVEL","6","YEARS","19-DEC-2012","SCREENING 1","19-DEC-2012"],[47,"CDISCPILOT01","703","1100","EDUCATION","EDUCATION LEVEL","8","YEARS","28-FEB-2013","SCREENING 1","28-FEB-2013"],[48,"CDISCPILOT01","703","1119","EDUCATION","EDUCATION LEVEL","16","YEARS","02-FEB-2013","SCREENING 1","02-FEB-2013"],[49,"CDISCPILOT01","703","1175","EDUCATION","EDUCATION LEVEL","16","YEARS","13-DEC-2013","SCREENING 1","13-DEC-2013"],[50,"CDISCPILOT01","703","1182","EDUCATION","EDUCATION LEVEL","12","YEARS","08-OCT-2013","SCREENING 1","08-OCT-2013"],[51,"CDISCPILOT01","703","1197","EDUCATION","EDUCATION LEVEL","5","YEARS","01-JUN-2013","SCREENING 1","01-JUN-2013"],[52,"CDISCPILOT01","703","1210","EDUCATION","EDUCATION LEVEL","12","YEARS","08-MAR-2013","SCREENING 1","08-MAR-2013"],[53,"CDISCPILOT01","703","1258","EDUCATION","EDUCATION LEVEL","12","YEARS","10-JUL-2012","SCREENING 1","10-JUL-2012"],[54,"CDISCPILOT01","703","1279","EDUCATION","EDUCATION LEVEL","12","YEARS","27-APR-2013","SCREENING 1","27-APR-2013"],[55,"CDISCPILOT01","703","1295","EDUCATION","EDUCATION LEVEL","8","YEARS","24-OCT-2013","SCREENING 1","24-OCT-2013"],[56,"CDISCPILOT01","703","1299","EDUCATION","EDUCATION LEVEL","12","YEARS","07-SEP-2012","SCREENING 1","07-SEP-2012"],[57,"CDISCPILOT01","703","1335","EDUCATION","EDUCATION LEVEL","11","YEARS","28-FEB-2014","SCREENING 1","28-FEB-2014"],[58,"CDISCPILOT01","703","1379","EDUCATION","EDUCATION LEVEL","7","YEARS","12-SEP-2013","SCREENING 1","12-SEP-2013"],[59,"CDISCPILOT01","703","1403","EDUCATION","EDUCATION LEVEL","12","YEARS","05-DEC-2012","SCREENING 1","05-DEC-2012"],[60,"CDISCPILOT01","703","1439","EDUCATION","EDUCATION LEVEL","12","YEARS","04-MAR-2014","SCREENING 1","04-MAR-2014"],[61,"CDISCPILOT01","704","1008","EDUCATION","EDUCATION LEVEL","12","YEARS","06-JAN-2013","SCREENING 1","06-JAN-2013"],[62,"CDISCPILOT01","704","1009","EDUCATION","EDUCATION LEVEL","16","YEARS","20-AUG-2013","SCREENING 1","20-AUG-2013"],[63,"CDISCPILOT01","704","1010","EDUCATION","EDUCATION LEVEL","14","YEARS","08-FEB-2014","SCREENING 1","08-FEB-2014"],[64,"CDISCPILOT01","704","1017","EDUCATION","EDUCATION LEVEL","12","YEARS","20-SEP-2013","SCREENING 1","20-SEP-2013"],[65,"CDISCPILOT01","704","1025","EDUCATION","EDUCATION LEVEL","18","YEARS","18-SEP-2013","SCREENING 1","18-SEP-2013"],[66,"CDISCPILOT01","704","1065","EDUCATION","EDUCATION LEVEL","12","YEARS","17-OCT-2013","SCREENING 1","17-OCT-2013"],[67,"CDISCPILOT01","704","1074","EDUCATION","EDUCATION LEVEL","16","YEARS","19-JAN-2014","SCREENING 1","19-JAN-2014"],[68,"CDISCPILOT01","704","1093","EDUCATION","EDUCATION LEVEL","12","YEARS","22-FEB-2013","SCREENING 1","22-FEB-2013"],[69,"CDISCPILOT01","704","1114","EDUCATION","EDUCATION LEVEL","8","YEARS","09-JAN-2013","SCREENING 1","09-JAN-2013"],[70,"CDISCPILOT01","704","1120","EDUCATION","EDUCATION LEVEL","13","YEARS","18-NOV-2013","SCREENING 1","18-NOV-2013"],[71,"CDISCPILOT01","704","1127","EDUCATION","EDUCATION LEVEL","12","YEARS","16-SEP-2013","SCREENING 1","16-SEP-2013"],[72,"CDISCPILOT01","704","1135","EDUCATION","EDUCATION LEVEL","14","YEARS","23-OCT-2013","SCREENING 1","23-OCT-2013"],[73,"CDISCPILOT01","704","1164","EDUCATION","EDUCATION LEVEL","10","YEARS","11-SEP-2012","SCREENING 1","11-SEP-2012"],[74,"CDISCPILOT01","704","1218","EDUCATION","EDUCATION LEVEL","12","YEARS","11-NOV-2012","SCREENING 1","11-NOV-2012"],[75,"CDISCPILOT01","704","1233","EDUCATION","EDUCATION LEVEL","16","YEARS","08-MAR-2013","SCREENING 1","08-MAR-2013"],[76,"CDISCPILOT01","704","1241","EDUCATION","EDUCATION LEVEL","14","YEARS","14-AUG-2013","SCREENING 1","14-AUG-2013"],[77,"CDISCPILOT01","704","1260","EDUCATION","EDUCATION LEVEL","16","YEARS","23-AUG-2012","SCREENING 1","23-AUG-2012"],[78,"CDISCPILOT01","704","1266","EDUCATION","EDUCATION LEVEL","12","YEARS","05-OCT-2013","SCREENING 1","05-OCT-2013"],[79,"CDISCPILOT01","704","1323","EDUCATION","EDUCATION LEVEL","16","YEARS","13-JUN-2013","SCREENING 1","13-JUN-2013"],[80,"CDISCPILOT01","704","1325","EDUCATION","EDUCATION LEVEL","16","YEARS","16-APR-2014","SCREENING 1","16-APR-2014"],[81,"CDISCPILOT01","704","1332","EDUCATION","EDUCATION LEVEL","9","YEARS","24-NOV-2013","SCREENING 1","24-NOV-2013"],[82,"CDISCPILOT01","704","1351","EDUCATION","EDUCATION LEVEL","12","YEARS","26-SEP-2013","SCREENING 1","26-SEP-2013"],[83,"CDISCPILOT01","704","1388","EDUCATION","EDUCATION LEVEL","11","YEARS","28-NOV-2012","SCREENING 1","28-NOV-2012"],[84,"CDISCPILOT01","704","1435","EDUCATION","EDUCATION LEVEL","16","YEARS","01-NOV-2012","SCREENING 1","01-NOV-2012"],[85,"CDISCPILOT01","704","1445","EDUCATION","EDUCATION LEVEL","12","YEARS","01-MAY-2014","SCREENING 1","01-MAY-2014"],[86,"CDISCPILOT01","705","1018","EDUCATION","EDUCATION LEVEL","6","YEARS","30-JUN-2013","SCREENING 1","30-JUN-2013"],[87,"CDISCPILOT01","705","1031","EDUCATION","EDUCATION LEVEL","16","YEARS","17-NOV-2013","SCREENING 1","17-NOV-2013"],[88,"CDISCPILOT01","705","1059","EDUCATION","EDUCATION LEVEL","12","YEARS","02-AUG-2013","SCREENING 1","02-AUG-2013"],[89,"CDISCPILOT01","705","1186","EDUCATION","EDUCATION LEVEL","12","YEARS","03-JAN-2014","SCREENING 1","03-JAN-2014"],[90,"CDISCPILOT01","705","1199","EDUCATION","EDUCATION LEVEL","20","YEARS","11-SEP-2013","SCREENING 1","11-SEP-2013"],[91,"CDISCPILOT01","705","1280","EDUCATION","EDUCATION LEVEL","12","YEARS","11-JAN-2014","SCREENING 1","11-JAN-2014"],[92,"CDISCPILOT01","705","1281","EDUCATION","EDUCATION LEVEL","12","YEARS","26-NOV-2013","SCREENING 1","26-NOV-2013"],[93,"CDISCPILOT01","705","1282","EDUCATION","EDUCATION LEVEL","12","YEARS","23-DEC-2012","SCREENING 1","23-DEC-2012"],[94,"CDISCPILOT01","705","1292","EDUCATION","EDUCATION LEVEL","8","YEARS","11-OCT-2013","SCREENING 1","11-OCT-2013"],[95,"CDISCPILOT01","705","1303","EDUCATION","EDUCATION LEVEL","12","YEARS","10-DEC-2013","SCREENING 1","10-DEC-2013"],[96,"CDISCPILOT01","705","1310","EDUCATION","EDUCATION LEVEL","12","YEARS","26-OCT-2013","SCREENING 1","26-OCT-2013"],[97,"CDISCPILOT01","705","1349","EDUCATION","EDUCATION LEVEL","10","YEARS","24-FEB-2013","SCREENING 1","24-FEB-2013"],[98,"CDISCPILOT01","705","1377","EDUCATION","EDUCATION LEVEL","6","YEARS","29-DEC-2013","SCREENING 1","29-DEC-2013"],[99,"CDISCPILOT01","705","1382","EDUCATION","EDUCATION LEVEL","12","YEARS","09-MAY-2013","SCREENING 1","09-MAY-2013"],[100,"CDISCPILOT01","705","1393","EDUCATION","EDUCATION LEVEL","13","YEARS","02-SEP-2012","SCREENING 1","02-SEP-2012"],[101,"CDISCPILOT01","705","1431","EDUCATION","EDUCATION LEVEL","12","YEARS","16-JUN-2013","SCREENING 1","16-JUN-2013"],[102,"CDISCPILOT01","706","1041","EDUCATION","EDUCATION LEVEL","15","YEARS","21-DEC-2013","SCREENING 1","21-DEC-2013"],[103,"CDISCPILOT01","706","1049","EDUCATION","EDUCATION LEVEL","11","YEARS","30-APR-2013","SCREENING 1","30-APR-2013"],[104,"CDISCPILOT01","706","1384","EDUCATION","EDUCATION LEVEL","8","YEARS","25-AUG-2012","SCREENING 1","25-AUG-2012"],[105,"CDISCPILOT01","707","1037","EDUCATION","EDUCATION LEVEL","14","YEARS","12-DEC-2013","SCREENING 1","12-DEC-2013"],[106,"CDISCPILOT01","707","1206","EDUCATION","EDUCATION LEVEL","7","YEARS","20-OCT-2013","SCREENING 1","20-OCT-2013"],[107,"CDISCPILOT01","708","1019","EDUCATION","EDUCATION LEVEL","18","YEARS","10-DEC-2013","SCREENING 1","10-DEC-2013"],[108,"CDISCPILOT01","708","1032","EDUCATION","EDUCATION LEVEL","12","YEARS","02-FEB-2013","SCREENING 1","02-FEB-2013"],[109,"CDISCPILOT01","708","1084","EDUCATION","EDUCATION LEVEL","12","YEARS","01-MAY-2013","SCREENING 1","01-MAY-2013"],[110,"CDISCPILOT01","708","1087","EDUCATION","EDUCATION LEVEL","12","YEARS","06-OCT-2012","SCREENING 1","06-OCT-2012"],[111,"CDISCPILOT01","708","1158","EDUCATION","EDUCATION LEVEL","8","YEARS","01-FEB-2014","SCREENING 1","01-FEB-2014"],[112,"CDISCPILOT01","708","1171","EDUCATION","EDUCATION LEVEL","09","YEARS","25-NOV-2012","SCREENING 1","25-NOV-2012"],[113,"CDISCPILOT01","708","1178","EDUCATION","EDUCATION LEVEL","08","YEARS","13-DEC-2013","SCREENING 1","13-DEC-2013"],[114,"CDISCPILOT01","708","1213","EDUCATION","EDUCATION LEVEL","12","YEARS","01-FEB-2013","SCREENING 1","01-FEB-2013"],[115,"CDISCPILOT01","708","1216","EDUCATION","EDUCATION LEVEL","12","YEARS","14-OCT-2012","SCREENING 1","14-OCT-2012"],[116,"CDISCPILOT01","708","1236","EDUCATION","EDUCATION LEVEL","08","YEARS","08-SEP-2013","SCREENING 1","08-SEP-2013"],[117,"CDISCPILOT01","708","1253","EDUCATION","EDUCATION LEVEL","12","YEARS","26-APR-2013","SCREENING 1","26-APR-2013"],[118,"CDISCPILOT01","708","1272","EDUCATION","EDUCATION LEVEL","11","YEARS","22-JAN-2013","SCREENING 1","22-JAN-2013"],[119,"CDISCPILOT01","708","1286","EDUCATION","EDUCATION LEVEL","12","YEARS","25-AUG-2013","SCREENING 1","25-AUG-2013"],[120,"CDISCPILOT01","708","1296","EDUCATION","EDUCATION LEVEL","18","YEARS","07-JUN-2013","SCREENING 1","07-JUN-2013"],[121,"CDISCPILOT01","708","1297","EDUCATION","EDUCATION LEVEL","13","YEARS","15-JAN-2013","SCREENING 1","15-JAN-2013"],[122,"CDISCPILOT01","708","1316","EDUCATION","EDUCATION LEVEL","12","YEARS","15-AUG-2013","SCREENING 1","15-AUG-2013"],[123,"CDISCPILOT01","708","1336","EDUCATION","EDUCATION LEVEL","18","YEARS","21-NOV-2012","SCREENING 1","21-NOV-2012"],[124,"CDISCPILOT01","708","1342","EDUCATION","EDUCATION LEVEL","13","YEARS","21-DEC-2012","SCREENING 1","21-DEC-2012"],[125,"CDISCPILOT01","708","1347","EDUCATION","EDUCATION LEVEL","12","YEARS","11-APR-2013","SCREENING 1","11-APR-2013"],[126,"CDISCPILOT01","708","1348","EDUCATION","EDUCATION LEVEL","12","YEARS","28-JUL-2013","SCREENING 1","28-JUL-2013"],[127,"CDISCPILOT01","708","1353","EDUCATION","EDUCATION LEVEL","16","YEARS","17-JUN-2013","SCREENING 1","17-JUN-2013"],[128,"CDISCPILOT01","708","1372","EDUCATION","EDUCATION LEVEL","8","YEARS","03-APR-2013","SCREENING 1","03-APR-2013"],[129,"CDISCPILOT01","708","1378","EDUCATION","EDUCATION LEVEL","13","YEARS","24-AUG-2013","SCREENING 1","24-AUG-2013"],[130,"CDISCPILOT01","708","1406","EDUCATION","EDUCATION LEVEL","13","YEARS","06-DEC-2013","SCREENING 1","06-DEC-2013"],[131,"CDISCPILOT01","708","1428","EDUCATION","EDUCATION LEVEL","8","YEARS","02-NOV-2013","SCREENING 1","02-NOV-2013"],[132,"CDISCPILOT01","709","1001","EDUCATION","EDUCATION LEVEL","12","YEARS","20-SEP-2013","SCREENING 1","20-SEP-2013"],[133,"CDISCPILOT01","709","1007","EDUCATION","EDUCATION LEVEL","21","YEARS","21-JUL-2012","SCREENING 1","21-JUL-2012"],[134,"CDISCPILOT01","709","1020","EDUCATION","EDUCATION LEVEL","12","YEARS","22-NOV-2012","SCREENING 1","22-NOV-2012"],[135,"CDISCPILOT01","709","1029","EDUCATION","EDUCATION LEVEL","20","YEARS","10-DEC-2012","SCREENING 1","10-DEC-2012"],[136,"CDISCPILOT01","709","1081","EDUCATION","EDUCATION LEVEL","9","YEARS","09-JAN-2014","SCREENING 1","09-JAN-2014"],[137,"CDISCPILOT01","709","1088","EDUCATION","EDUCATION LEVEL","16","YEARS","30-MAR-2014","SCREENING 1","30-MAR-2014"],[138,"CDISCPILOT01","709","1099","EDUCATION","EDUCATION LEVEL","12","YEARS","14-OCT-2013","SCREENING 1","14-OCT-2013"],[139,"CDISCPILOT01","709","1102","EDUCATION","EDUCATION LEVEL","14","YEARS","07-JAN-2013","SCREENING 1","07-JAN-2013"],[140,"CDISCPILOT01","709","1168","EDUCATION","EDUCATION LEVEL","12","YEARS","25-JUL-2013","SCREENING 1","25-JUL-2013"],[141,"CDISCPILOT01","709","1217","EDUCATION","EDUCATION LEVEL","6","YEARS","16-FEB-2013","SCREENING 1","16-FEB-2013"],[142,"CDISCPILOT01","709","1238","EDUCATION","EDUCATION LEVEL","8","YEARS","02-MAY-2013","SCREENING 1","02-MAY-2013"],[143,"CDISCPILOT01","709","1259","EDUCATION","EDUCATION LEVEL","18","YEARS","13-JAN-2013","SCREENING 1","13-JAN-2013"],[144,"CDISCPILOT01","709","1285","EDUCATION","EDUCATION LEVEL","6","YEARS","17-MAR-2013","SCREENING 1","17-MAR-2013"],[145,"CDISCPILOT01","709","1301","EDUCATION","EDUCATION LEVEL","10","YEARS","14-JUL-2013","SCREENING 1","14-JUL-2013"],[146,"CDISCPILOT01","709","1306","EDUCATION","EDUCATION LEVEL","12","YEARS","19-JAN-2014","SCREENING 1","19-JAN-2014"],[147,"CDISCPILOT01","709","1309","EDUCATION","EDUCATION LEVEL","16","YEARS","09-JUN-2013","SCREENING 1","09-JUN-2013"],[148,"CDISCPILOT01","709","1312","EDUCATION","EDUCATION LEVEL","13","YEARS","13-APR-2014","SCREENING 1","13-APR-2014"],[149,"CDISCPILOT01","709","1326","EDUCATION","EDUCATION LEVEL","16","YEARS","21-MAR-2013","SCREENING 1","21-MAR-2013"],[150,"CDISCPILOT01","709","1329","EDUCATION","EDUCATION LEVEL","16","YEARS","01-AUG-2013","SCREENING 1","01-AUG-2013"],[151,"CDISCPILOT01","709","1339","EDUCATION","EDUCATION LEVEL","16","YEARS","15-DEC-2012","SCREENING 1","15-DEC-2012"],[152,"CDISCPILOT01","709","1424","EDUCATION","EDUCATION LEVEL","16","YEARS","15-FEB-2013","SCREENING 1","15-FEB-2013"],[153,"CDISCPILOT01","710","1002","EDUCATION","EDUCATION LEVEL","12","YEARS","30-DEC-2013","SCREENING 1","30-DEC-2013"],[154,"CDISCPILOT01","710","1006","EDUCATION","EDUCATION LEVEL","12","YEARS","27-JAN-2013","SCREENING 1","27-JAN-2013"],[155,"CDISCPILOT01","710","1021","EDUCATION","EDUCATION LEVEL","8","YEARS","19-SEP-2013","SCREENING 1","19-SEP-2013"],[156,"CDISCPILOT01","710","1027","EDUCATION","EDUCATION LEVEL","12","YEARS","03-FEB-2014","SCREENING 1","03-FEB-2014"],[157,"CDISCPILOT01","710","1045","EDUCATION","EDUCATION LEVEL","12","YEARS","20-MAY-2013","SCREENING 1","20-MAY-2013"],[158,"CDISCPILOT01","710","1053","EDUCATION","EDUCATION LEVEL","12","YEARS","15-DEC-2012","SCREENING 1","15-DEC-2012"],[159,"CDISCPILOT01","710","1060","EDUCATION","EDUCATION LEVEL","16","YEARS","24-DEC-2012","SCREENING 1","24-DEC-2012"],[160,"CDISCPILOT01","710","1070","EDUCATION","EDUCATION LEVEL","10","YEARS","28-AUG-2012","SCREENING 1","28-AUG-2012"],[161,"CDISCPILOT01","710","1077","EDUCATION","EDUCATION LEVEL","12","YEARS","03-NOV-2013","SCREENING 1","03-NOV-2013"],[162,"CDISCPILOT01","710","1078","EDUCATION","EDUCATION LEVEL","12","YEARS","06-SEP-2013","SCREENING 1","06-SEP-2013"],[163,"CDISCPILOT01","710","1083","EDUCATION","EDUCATION LEVEL","14","YEARS","09-JUL-2013","SCREENING 1","09-JUL-2013"],[164,"CDISCPILOT01","710","1137","EDUCATION","EDUCATION LEVEL","16","YEARS","03-OCT-2013","SCREENING 1","03-OCT-2013"],[165,"CDISCPILOT01","710","1142","EDUCATION","EDUCATION LEVEL","12","YEARS","12-SEP-2012","SCREENING 1","12-SEP-2012"],[166,"CDISCPILOT01","710","1154","EDUCATION","EDUCATION LEVEL","3","YEARS","08-MAR-2014","SCREENING 1","08-MAR-2014"],[167,"CDISCPILOT01","710","1166","EDUCATION","EDUCATION LEVEL","12","YEARS","10-NOV-2012","SCREENING 1","10-NOV-2012"],[168,"CDISCPILOT01","710","1183","EDUCATION","EDUCATION LEVEL","8","YEARS","24-OCT-2013","SCREENING 1","24-OCT-2013"],[169,"CDISCPILOT01","710","1187","EDUCATION","EDUCATION LEVEL","8","YEARS","26-OCT-2012","SCREENING 1","26-OCT-2012"],[170,"CDISCPILOT01","710","1235","EDUCATION","EDUCATION LEVEL","16","YEARS","13-SEP-2012","SCREENING 1","13-SEP-2012"],[171,"CDISCPILOT01","710","1249","EDUCATION","EDUCATION LEVEL","12","YEARS","19-DEC-2013","SCREENING 1","19-DEC-2013"],[172,"CDISCPILOT01","710","1264","EDUCATION","EDUCATION LEVEL","12","YEARS","02-JUN-2013","SCREENING 1","02-JUN-2013"],[173,"CDISCPILOT01","710","1270","EDUCATION","EDUCATION LEVEL","12","YEARS","01-FEB-2014","SCREENING 1","01-FEB-2014"],[174,"CDISCPILOT01","710","1271","EDUCATION","EDUCATION LEVEL","16","YEARS","04-SEP-2012","SCREENING 1","04-SEP-2012"],[175,"CDISCPILOT01","710","1278","EDUCATION","EDUCATION LEVEL","20","YEARS","13-DEC-2012","SCREENING 1","13-DEC-2012"],[176,"CDISCPILOT01","710","1300","EDUCATION","EDUCATION LEVEL","12","YEARS","04-DEC-2012","SCREENING 1","04-DEC-2012"],[177,"CDISCPILOT01","710","1314","EDUCATION","EDUCATION LEVEL","12","YEARS","21-APR-2013","SCREENING 1","21-APR-2013"],[178,"CDISCPILOT01","710","1315","EDUCATION","EDUCATION LEVEL","12","YEARS","12-FEB-2013","SCREENING 1","12-FEB-2013"],[179,"CDISCPILOT01","710","1354","EDUCATION","EDUCATION LEVEL","16","YEARS","29-OCT-2012","SCREENING 1","29-OCT-2012"],[180,"CDISCPILOT01","710","1358","EDUCATION","EDUCATION LEVEL","6","YEARS","02-SEP-2012","SCREENING 1","02-SEP-2012"],[181,"CDISCPILOT01","710","1368","EDUCATION","EDUCATION LEVEL","12","YEARS","21-OCT-2013","SCREENING 1","21-OCT-2013"],[182,"CDISCPILOT01","710","1385","EDUCATION","EDUCATION LEVEL","18","YEARS","21-OCT-2012","SCREENING 1","21-OCT-2012"],[183,"CDISCPILOT01","710","1408","EDUCATION","EDUCATION LEVEL","12","YEARS","26-DEC-2012","SCREENING 1","26-DEC-2012"],[184,"CDISCPILOT01","711","1012","EDUCATION","EDUCATION LEVEL","12","YEARS","20-MAR-2013","SCREENING 1","20-MAR-2013"],[185,"CDISCPILOT01","711","1036","EDUCATION","EDUCATION LEVEL","9","YEARS","20-JUL-2012","SCREENING 1","20-JUL-2012"],[186,"CDISCPILOT01","711","1143","EDUCATION","EDUCATION LEVEL","12","YEARS","30-MAR-2013","SCREENING 1","30-MAR-2013"],[187,"CDISCPILOT01","711","1433","EDUCATION","EDUCATION LEVEL","12","YEARS","23-JAN-2013","SCREENING 1","23-JAN-2013"],[188,"CDISCPILOT01","713","1043","EDUCATION","EDUCATION LEVEL","8","YEARS","17-AUG-2013","SCREENING 1","17-AUG-2013"],[189,"CDISCPILOT01","713","1073","EDUCATION","EDUCATION LEVEL","6","YEARS","15-MAR-2014","SCREENING 1","15-MAR-2014"],[190,"CDISCPILOT01","713","1106","EDUCATION","EDUCATION LEVEL","16","YEARS","03-OCT-2012","SCREENING 1","03-OCT-2012"],[191,"CDISCPILOT01","713","1141","EDUCATION","EDUCATION LEVEL","13","YEARS","23-MAY-2013","SCREENING 1","23-MAY-2013"],[192,"CDISCPILOT01","713","1179","EDUCATION","EDUCATION LEVEL","12","YEARS","11-JUL-2013","SCREENING 1","11-JUL-2013"],[193,"CDISCPILOT01","713","1209","EDUCATION","EDUCATION LEVEL","12","YEARS","16-MAY-2013","SCREENING 1","16-MAY-2013"],[194,"CDISCPILOT01","713","1256","EDUCATION","EDUCATION LEVEL","16","YEARS","10-SEP-2012","SCREENING 1","10-SEP-2012"],[195,"CDISCPILOT01","713","1269","EDUCATION","EDUCATION LEVEL","16","YEARS","14-JAN-2014","SCREENING 1","14-JAN-2014"],[196,"CDISCPILOT01","713","1448","EDUCATION","EDUCATION LEVEL","13","YEARS","05-JAN-2014","SCREENING 1","05-JAN-2014"],[197,"CDISCPILOT01","714","1035","EDUCATION","EDUCATION LEVEL","12","YEARS","03-APR-2014","SCREENING 1","03-APR-2014"],[198,"CDISCPILOT01","714","1068","EDUCATION","EDUCATION LEVEL","9","YEARS","31-JUL-2013","SCREENING 1","31-JUL-2013"],[199,"CDISCPILOT01","714","1195","EDUCATION","EDUCATION LEVEL","16","YEARS","16-APR-2013","SCREENING 1","16-APR-2013"],[200,"CDISCPILOT01","714","1288","EDUCATION","EDUCATION LEVEL","6","YEARS","24-NOV-2013","SCREENING 1","24-NOV-2013"],[201,"CDISCPILOT01","714","1375","EDUCATION","EDUCATION LEVEL","10","YEARS","23-FEB-2013","SCREENING 1","23-FEB-2013"],[202,"CDISCPILOT01","714","1425","EDUCATION","EDUCATION LEVEL","16","YEARS","11-AUG-2013","SCREENING 1","11-AUG-2013"],[203,"CDISCPILOT01","715","1085","EDUCATION","EDUCATION LEVEL","14","YEARS","03-FEB-2013","SCREENING 1","03-FEB-2013"],[204,"CDISCPILOT01","715","1107","EDUCATION","EDUCATION LEVEL","12","YEARS","12-FEB-2013","SCREENING 1","12-FEB-2013"],[205,"CDISCPILOT01","715","1155","EDUCATION","EDUCATION LEVEL","12","YEARS","29-NOV-2013","SCREENING 1","29-NOV-2013"],[206,"CDISCPILOT01","715","1207","EDUCATION","EDUCATION LEVEL","7","YEARS","12-NOV-2012","SCREENING 1","12-NOV-2012"],[207,"CDISCPILOT01","715","1319","EDUCATION","EDUCATION LEVEL","13","YEARS","03-FEB-2013","SCREENING 1","03-FEB-2013"],[208,"CDISCPILOT01","715","1321","EDUCATION","EDUCATION LEVEL","12","YEARS","06-FEB-2014","SCREENING 1","06-FEB-2014"],[209,"CDISCPILOT01","715","1397","EDUCATION","EDUCATION LEVEL","11","YEARS","20-MAR-2013","SCREENING 1","20-MAR-2013"],[210,"CDISCPILOT01","715","1405","EDUCATION","EDUCATION LEVEL","16","YEARS","27-JUN-2013","SCREENING 1","27-JUN-2013"],[211,"CDISCPILOT01","716","1024","EDUCATION","EDUCATION LEVEL","12","YEARS","06-JUL-2012","SCREENING 1","06-JUL-2012"],[212,"CDISCPILOT01","716","1026","EDUCATION","EDUCATION LEVEL","12","YEARS","23-MAR-2014","SCREENING 1","23-MAR-2014"],[213,"CDISCPILOT01","716","1030","EDUCATION","EDUCATION LEVEL","12","YEARS","25-DEC-2013","SCREENING 1","25-DEC-2013"],[214,"CDISCPILOT01","716","1044","EDUCATION","EDUCATION LEVEL","12","YEARS","20-APR-2013","SCREENING 1","20-APR-2013"],[215,"CDISCPILOT01","716","1063","EDUCATION","EDUCATION LEVEL","8","YEARS","06-MAY-2013","SCREENING 1","06-MAY-2013"],[216,"CDISCPILOT01","716","1071","EDUCATION","EDUCATION LEVEL","12","YEARS","03-JUN-2013","SCREENING 1","03-JUN-2013"],[217,"CDISCPILOT01","716","1094","EDUCATION","EDUCATION LEVEL","8","YEARS","16-DEC-2012","SCREENING 1","16-DEC-2012"],[218,"CDISCPILOT01","716","1103","EDUCATION","EDUCATION LEVEL","8","YEARS","18-MAR-2014","SCREENING 1","18-MAR-2014"],[219,"CDISCPILOT01","716","1108","EDUCATION","EDUCATION LEVEL","12","YEARS","04-FEB-2013","SCREENING 1","04-FEB-2013"],[220,"CDISCPILOT01","716","1151","EDUCATION","EDUCATION LEVEL","18","YEARS","23-JAN-2013","SCREENING 1","23-JAN-2013"],[221,"CDISCPILOT01","716","1157","EDUCATION","EDUCATION LEVEL","14","YEARS","23-SEP-2013","SCREENING 1","23-SEP-2013"],[222,"CDISCPILOT01","716","1160","EDUCATION","EDUCATION LEVEL","12","YEARS","23-MAR-2013","SCREENING 1","23-MAR-2013"],[223,"CDISCPILOT01","716","1167","EDUCATION","EDUCATION LEVEL","12","YEARS","30-SEP-2012","SCREENING 1","30-SEP-2012"],[224,"CDISCPILOT01","716","1177","EDUCATION","EDUCATION LEVEL","12","YEARS","29-AUG-2014","SCREENING 1","29-AUG-2014"],[225,"CDISCPILOT01","716","1189","EDUCATION","EDUCATION LEVEL","9","YEARS","07-OCT-2012","SCREENING 1","07-OCT-2012"],[226,"CDISCPILOT01","716","1229","EDUCATION","EDUCATION LEVEL","16","YEARS","14-FEB-2013","SCREENING 1","14-FEB-2013"],[227,"CDISCPILOT01","716","1298","EDUCATION","EDUCATION LEVEL","12","YEARS","04-APR-2013","SCREENING 1","04-APR-2013"],[228,"CDISCPILOT01","716","1308","EDUCATION","EDUCATION LEVEL","13","YEARS","23-AUG-2013","SCREENING 1","23-AUG-2013"],[229,"CDISCPILOT01","716","1311","EDUCATION","EDUCATION LEVEL","14","YEARS","08-MAY-2014","SCREENING 1","08-MAY-2014"],[230,"CDISCPILOT01","716","1364","EDUCATION","EDUCATION LEVEL","12","YEARS","27-JUN-2013","SCREENING 1","27-JUN-2013"],[231,"CDISCPILOT01","716","1373","EDUCATION","EDUCATION LEVEL","16","YEARS","24-NOV-2012","SCREENING 1","24-NOV-2012"],[232,"CDISCPILOT01","716","1418","EDUCATION","EDUCATION LEVEL","8","YEARS","27-APR-2013","SCREENING 1","27-APR-2013"],[233,"CDISCPILOT01","716","1441","EDUCATION","EDUCATION LEVEL","10","YEARS","13-JAN-2014","SCREENING 1","13-JAN-2014"],[234,"CDISCPILOT01","716","1447","EDUCATION","EDUCATION LEVEL","14","YEARS","10-DEC-2013","SCREENING 1","10-DEC-2013"],[235,"CDISCPILOT01","717","1004","EDUCATION","EDUCATION LEVEL","15","YEARS","01-JAN-2014","SCREENING 1","01-JAN-2014"],[236,"CDISCPILOT01","717","1109","EDUCATION","EDUCATION LEVEL","17","YEARS","20-JAN-2014","SCREENING 1","20-JAN-2014"],[237,"CDISCPILOT01","717","1174","EDUCATION","EDUCATION LEVEL","16","YEARS","16-JAN-2013","SCREENING 1","16-JAN-2013"],[238,"CDISCPILOT01","717","1201","EDUCATION","EDUCATION LEVEL","12","YEARS","12-DEC-2013","SCREENING 1","12-DEC-2013"],[239,"CDISCPILOT01","717","1344","EDUCATION","EDUCATION LEVEL","16","YEARS","01-JAN-2014","SCREENING 1","01-JAN-2014"],[240,"CDISCPILOT01","717","1357","EDUCATION","EDUCATION LEVEL","14","YEARS","21-APR-2013","SCREENING 1","21-APR-2013"],[241,"CDISCPILOT01","717","1446","EDUCATION","EDUCATION LEVEL","12","YEARS","20-AUG-2013","SCREENING 1","20-AUG-2013"],[242,"CDISCPILOT01","718","1066","EDUCATION","EDUCATION LEVEL","14","YEARS","28-JUN-2013","SCREENING 1","28-JUN-2013"],[243,"CDISCPILOT01","718","1079","EDUCATION","EDUCATION LEVEL","16","YEARS","11-SEP-2012","SCREENING 1","11-SEP-2012"],[244,"CDISCPILOT01","718","1101","EDUCATION","EDUCATION LEVEL","12","YEARS","01-FEB-2013","SCREENING 1","01-FEB-2013"],[245,"CDISCPILOT01","718","1139","EDUCATION","EDUCATION LEVEL","14","YEARS","03-MAY-2013","SCREENING 1","03-MAY-2013"],[246,"CDISCPILOT01","718","1150","EDUCATION","EDUCATION LEVEL","16","YEARS","12-JAN-2013","SCREENING 1","12-JAN-2013"],[247,"CDISCPILOT01","718","1170","EDUCATION","EDUCATION LEVEL","12","YEARS","25-AUG-2013","SCREENING 1","25-AUG-2013"],[248,"CDISCPILOT01","718","1172","EDUCATION","EDUCATION LEVEL","21","YEARS","15-SEP-2013","SCREENING 1","15-SEP-2013"],[249,"CDISCPILOT01","718","1250","EDUCATION","EDUCATION LEVEL","21","YEARS","21-AUG-2013","SCREENING 1","21-AUG-2013"],[250,"CDISCPILOT01","718","1254","EDUCATION","EDUCATION LEVEL","18","YEARS","28-JUN-2013","SCREENING 1","28-JUN-2013"],[251,"CDISCPILOT01","718","1328","EDUCATION","EDUCATION LEVEL","12","YEARS","28-JAN-2013","SCREENING 1","28-JAN-2013"],[252,"CDISCPILOT01","718","1355","EDUCATION","EDUCATION LEVEL","15","YEARS","12-FEB-2013","SCREENING 1","12-FEB-2013"],[253,"CDISCPILOT01","718","1371","EDUCATION","EDUCATION LEVEL","10","YEARS","11-APR-2013","SCREENING 1","11-APR-2013"],[254,"CDISCPILOT01","718","1427","EDUCATION","EDUCATION LEVEL","16","YEARS","13-DEC-2012","SCREENING 1","13-DEC-2012"]]}}}}