{"creationDateTime":"2024-02-14T11:46:13","datasetJSONVersion":"1.0.0","fileOID":"CDISCPILOT01.vs","referenceData":{"studyOID":"CDISCPILOT01","metaDataVersionOID":"MDV.CDISCPILOT01","itemGroupData":{"IG.VS":{"records":8211,"name":"VS","label":"Vital Signs (VS)","items":[{"OID":"ITEMGROUPDATASEQ","name":"ITEMGROUPDATASEQ","label":"Record Identifier","type":"integer"},{"OID":"IT.VS.STUDYID","name":"STUDYID","label":"Study Identifier","type":"string","length":12,"displayFormat":"."},{"OID":"IT.VS.SITEID","name":"SITEID","label":"Study Site Identifier","type":"string","length":3,"displayFormat":"."},{"OID":"IT.VS.SUBJID","name":"SUBJID","label":"Subject Identifier for the Study","type":"string","length":4,"displayFormat":"."},{"OID":"IT.VS.DIABP_VSPOS","name":"DIABP_VSPOS","label":"Diastolic Blood Pressure Position of Subject","type":"string","length":8,"displayFormat":"."},{"OID":"IT.VS.SYSBP_VSPOS","name":"SYSBP_VSPOS","label":"Systolic Blood Pressure Position of Subject","type":"string","length":8,"displayFormat":"."},{"OID":"IT.VS.PULSE_VSPOS","name":"PULSE_VSPOS","label":"Pulse Position of Subject","type":"string","length":8,"displayFormat":"."},{"OID":"IT.VS.DIABP_VSORRES","name":"DIABP_VSORRES","label":"Diastolic Blood Pressure","type":"string","length":5,"displayFormat":"."},{"OID":"IT.VS.HEIGHT_VSORRES","name":"HEIGHT_VSORRES","label":"Height","type":"string","length":5,"displayFormat":"."},{"OID":"IT.VS.PULSE_VSORRES","name":"PULSE_VSORRES","label":"Pulse Rate","type":"string","length":5,"displayFormat":"."},{"OID":"IT.VS.SYSBP_VSORRES","name":"SYSBP_VSORRES","label":"Systolic Blood Pressure","type":"string","length":5,"displayFormat":"."},{"OID":"IT.VS.TEMP_VSORRES","name":"TEMP_VSORRES","label":"Temperature","type":"string","length":5,"displayFormat":"."},{"OID":"IT.VS.WEIGHT_VSORRES","name":"WEIGHT_VSORRES","label":"Weight","type":"string","length":5,"displayFormat":"."},{"OID":"IT.VS.DIABP_VSORRESU","name":"DIABP_VSORRESU","label":"Diastolic Blood Pressure Original Unit","type":"string","length":200,"displayFormat":"."},{"OID":"IT.VS.HEIGHT_VSORRESU","name":"HEIGHT_VSORRESU","label":"Height Original Unit","type":"string","length":200,"displayFormat":"."},{"OID":"IT.VS.PULSE_VSORRESU","name":"PULSE_VSORRESU","label":"Pulse Rate Original Unit","type":"string","length":200,"displayFormat":"."},{"OID":"IT.VS.SYSBP_VSORRESU","name":"SYSBP_VSORRESU","label":"Systolic Blood Pressure Original Unit","type":"string","length":200,"displayFormat":"."},{"OID":"IT.VS.TEMP_VSORRESU","name":"TEMP_VSORRESU","label":"Temperature Original Unit","type":"string","length":200,"displayFormat":"."},{"OID":"IT.VS.WEIGHT_VSORRESU","name":"WEIGHT_VSORRESU","label":"Weight Original Unit","type":"string","length":200,"displayFormat":"."},{"OID":"IT.VS.DIABP_VSSTAT","name":"DIABP_VSSTAT","label":"Diastolic Blood Pressure Completion Status","type":"string","length":8,"displayFormat":"."},{"OID":"IT.VS.HEIGHT_VSSTAT","name":"HEIGHT_VSSTAT","label":"Height Completion Status","type":"string","length":8,"displayFormat":"."},{"OID":"IT.VS.PULSE_VSSTAT","name":"PULSE_VSSTAT","label":"Pulse Rate Completion Status","type":"string","length":8,"displayFormat":"."},{"OID":"IT.VS.SYSBP_VSSTAT","name":"SYSBP_VSSTAT","label":"Systolic Blood Pressure Completion Status","type":"string","length":8,"displayFormat":"."},{"OID":"IT.VS.TEMP_VSSTAT","name":"TEMP_VSSTAT","label":"Temperature Completion Status","type":"string","length":8,"displayFormat":"."},{"OID":"IT.VS.WEIGHT_VSSTAT","name":"WEIGHT_VSSTAT","label":"Weight Completion Status","type":"string","length":8,"displayFormat":"."},{"OID":"IT.VS.TEMP_VSLOC","name":"TEMP_VSLOC","label":"Temperature Location","type":"string","length":200,"displayFormat":"."},{"OID":"IT.VS.VISIT","name":"VISIT","label":"Visit Name","type":"string","length":19,"displayFormat":"."},{"OID":"IT.VS.VISDAT","name":"VISDAT","label":"Visit Date","type":"string","length":11,"displayFormat":"."},{"OID":"IT.VS.DIABP_VSDAT","name":"DIABP_VSDAT","label":"Diastolic Blood Pressure Date","type":"string","length":11,"displayFormat":"."},{"OID":"IT.VS.HEIGHT_VSDAT","name":"HEIGHT_VSDAT","label":"Height Date","type":"string","length":11,"displayFormat":"."},{"OID":"IT.VS.PULSE_VSDAT","name":"PULSE_VSDAT","label":"Pulse Rate Date","type":"string","length":11,"displayFormat":"."},{"OID":"IT.VS.SYSBP_VSDAT","name":"SYSBP_VSDAT","label":"Systolic Blood Pressure Date","type":"string","length":11,"displayFormat":"."},{"OID":"IT.VS.TEMP_VSDAT","name":"TEMP_VSDAT","label":"Temperature Date","type":"string","length":11,"displayFormat":"."},{"OID":"IT.VS.WEIGHT_VSDAT","name":"WEIGHT_VSDAT","label":"Weight Date","type":"string","length":11,"displayFormat":"."},{"OID":"IT.VS.DIABP_VSTPT","name":"DIABP_VSTPT","label":"Diastolic Blood Pressure Planned Time Point Name","type":"string","length":30,"displayFormat":"."},{"OID":"IT.VS.SYSBP_VSTPT","name":"SYSBP_VSTPT","label":"Systolic Blood Pressure Planned Time Point Name","type":"string","length":30,"displayFormat":"."},{"OID":"IT.VS.PULSE_VSTPT","name":"PULSE_VSTPT","label":"Pulse Planned Time Point Name","type":"string","length":30,"displayFormat":"."},{"OID":"IT.VS.DIABP_VSTPTNUM","name":"DIABP_VSTPTNUM","label":"Diastolic Blood Pressure Planned Time Point Number","type":"float","length":8,"displayFormat":"."},{"OID":"IT.VS.SYSBP_VSTPTNUM","name":"SYSBP_VSTPTNUM","label":"Systolic Blood Pressure Planned Time Point Number","type":"float","length":8,"displayFormat":"."},{"OID":"IT.VS.PULSE_VSTPTNUM","name":"PULSE_VSTPTNUM","label":"Pulse Planned Time Point Number","type":"float","length":8,"displayFormat":"."}],"itemData":[[1,"CDISCPILOT01","701","1015","SUPINE","SUPINE","SUPINE","64","58.0","57","131","96.9","119.0","mmHg","IN","BEATS/MIN","mmHg","F","LB","","","","","","","ORAL CAVITY","SCREENING 1","26-DEC-2013","26-DEC-2013","26-DEC-2013","26-DEC-2013","26-DEC-2013","26-DEC-2013","26-DEC-2013","AFTER LYING DOWN FOR 5 MINUTES","AFTER LYING DOWN FOR 5 MINUTES","AFTER LYING DOWN FOR 5 MINUTES",815,815,815],[2,"CDISCPILOT01","701","1015","STANDING","STANDING","STANDING","83","","62","129","","","mmHg","","BEATS/MIN","mmHg","","","","","","","","","","SCREENING 1","26-DEC-2013","26-DEC-2013","","26-DEC-2013","26-DEC-2013","","","AFTER STANDING FOR 1 MINUTE","AFTER STANDING FOR 1 MINUTE","AFTER STANDING FOR 1 MINUTE",816,816,816],[3,"CDISCPILOT01","701","1015","STANDING","STANDING","STANDING","57","","65","147","","","mmHg","","BEATS/MIN","mmHg","","","","","","","","","","SCREENING 1","26-DEC-2013","26-DEC-2013","","26-DEC-2013","26-DEC-2013","","","AFTER STANDING FOR 3 MINUTES","AFTER STANDING FOR 3 MINUTES","AFTER STANDING FOR 3 MINUTES",817,817,817],[4,"CDISCPILOT01","701","1015","SUPINE","SUPINE","SUPINE","68","","56","138","97.0","","mmHg","","BEATS/MIN","mmHg","F","","","","","","","","ORAL CAVITY","SCREENING 2","31-DEC-2013","31-DEC-2013","","31-DEC-2013","31-DEC-2013","31-DEC-2013","","AFTER LYING DOWN FOR 5 MINUTES","AFTER LYING DOWN FOR 5 MINUTES","AFTER LYING DOWN FOR 5 MINUTES",815,815,815],[5,"CDISCPILOT01","701","1015","STANDING","STANDING","STANDING","59","","60","137","","","mmHg","","BEATS/MIN","mmHg","","","","","","","","","","SCREENING 2","31-DEC-2013","31-DEC-2013","","31-DEC-2013","31-DEC-2013","","","AFTER STANDING FOR 1 MINUTE","AFTER STANDING FOR 1 MINUTE","AFTER STANDING FOR 1 MINUTE",816,816,816],[6,"CDISCPILOT01","701","1015","STANDING","STANDING","STANDING","71","","57","145","","","mmHg","","BEATS/MIN","mmHg","","","","","","","","","","SCREENING 2","31-DEC-2013","31-DEC-2013","","31-DEC-2013","31-DEC-2013","","","AFTER STANDING FOR 3 MINUTES","AFTER STANDING FOR 3 MINUTES","AFTER STANDING FOR 3 MINUTES",817,817,817],[7,"CDISCPILOT01","701","1015","SUPINE","SUPINE","SUPINE","56","","56","130","97.2","120.0","mmHg","","BEATS/MIN","mmHg","F","LB","","","","","","","ORAL CAVITY","BASELINE","02-JAN-2014","02-JAN-2014","","02-JAN-2014","02-JAN-2014","02-JAN-2014","02-JAN-2014","AFTER LYING DOWN FOR 5 MINUTES","AFTER LYING DOWN FOR 5 MINUTES","AFTER LYING DOWN FOR 5 MINUTES",815,815,815],[8,"CDISCPILOT01","701","1015","STANDING","STANDING","STANDING","51","","59","121","","","mmHg","","BEATS/MIN","mmHg","","","","","","","","","","BASELINE","02-JAN-2014","02-JAN-2014","","02-JAN-2014","02-JAN-2014","","","AFTER STANDING FOR 1 MINUTE","AFTER STANDING FOR 1 MINUTE","AFTER STANDING FOR 1 MINUTE",816,816,816],[9,"CDISCPILOT01","701","1015","STANDING","STANDING","STANDING","61","","59","131","","","mmHg","","BEATS/MIN","mmHg","","","","","","","","","","BASELINE","02-JAN-2014","02-JAN-2014","","02-JAN-2014","02-JAN-2014","","","AFTER STANDING FOR 3 MINUTES","AFTER STANDING FOR 3 MINUTES","AFTER STANDING FOR 3 MINUTES",817,817,817],[10,"CDISCPILOT01","701","1015","SUPINE","SUPINE","SUPINE","67","","61","137","96.6","","mmHg","","BEATS/MIN","mmHg","F","","","","","","","","ORAL CAVITY","AMBUL ECG PLACEMENT","14-JAN-2014","14-JAN-2014","","14-JAN-2014","14-JAN-2014","14-JAN-2014","","AFTER LYING DOWN FOR 5 MINUTES","AFTER LYING DOWN FOR 5 MINUTES","AFTER LYING DOWN FOR 5 MINUTES",815,815,815],[11,"CDISCPILOT01","701","1015","STANDING","STANDING","STANDING","61","","65","127","","","mmHg","","BEATS/MIN","mmHg","","","","","","","","","","AMBUL ECG PLACEMENT","14-JAN-2014","14-JAN-2014","","14-JAN-2014","14-JAN-2014","","","AFTER STANDING FOR 1 MINUTE","AFTER STANDING FOR 1 MINUTE","AFTER STANDING FOR 1 MINUTE",816,816,816],[12,"CDISCPILOT01","701","1015","STANDING","STANDING","STANDING","65","","61","146","","","mmHg","","BEATS/MIN","mmHg","","","","","","","","","","AMBUL ECG PLACEMENT","14-JAN-2014","14-JAN-2014","","14-JAN-2014","14-JAN-2014","","","AFTER STANDING FOR 3 MINUTES","AFTER STANDING FOR 3 MINUTES","AFTER STANDING FOR 3 MINUTES",817,817,817],[13,"CDISCPILOT01","701","1015","SUPINE","SUPINE","SUPINE","56","","58","114","97.7","117.0","mmHg","","BEATS/MIN","mmHg","F","LB","","","","","","","ORAL CAVITY","WEEK 2","16-JAN-2014","16-JAN-2014","","16-JAN-2014","16-JAN-2014","16-JAN-2014","16-JAN-2014","AFTER LYING DOWN FOR 5 MINUTES","AFTER LYING DOWN FOR 5 MINUTES","AFTER LYING DOWN FOR 5 MINUTES",815,815,815],[14,"CDISCPILOT01","701","1015","STANDING","STANDING","STANDING","50","","61","121","","","mmHg","","BEATS/MIN","mmHg","","","","","","","","","","WEEK 2","16-JAN-2014","16-JAN-2014","","16-JAN-2014","16-JAN-2014","","","AFTER STANDING FOR 1 MINUTE","AFTER STANDING FOR 1 MINUTE","AFTER STANDING FOR 1 MINUTE",816,816,816],[15,"CDISCPILOT01","701","1015","STANDING","STANDING","STANDING","54","","62","132","","","mmHg","","BEATS/MIN","mmHg","","","","","","","","","","WEEK 2","16-JAN-2014","16-JAN-2014","","16-JAN-2014","16-JAN-2014","","","AFTER STANDING FOR 3 MINUTES","AFTER STANDING FOR 3 MINUTES","AFTER STANDING FOR 3 MINUTES",817,817,817],[16,"CDISCPILOT01","701","1015","SUPINE","SUPINE","SUPINE","64","","59","138","97.0","119.0","mmHg","","BEATS/MIN","mmHg","F","LB","","","","","","","ORAL CAVITY","WEEK 4","30-JAN-2014","30-JAN-2014","","30-JAN-2014","30-JAN-2014","30-JAN-2014","30-JAN-2014","AFTER LYING DOWN FOR 5 MINUTES","AFTER LYING DOWN FOR 5 MINUTES","AFTER LYING DOWN FOR 5 MINUTES",815,815,815],[17,"CDISCPILOT01","701","1015","STANDING","STANDING","STANDING","55","","62","137","","","mmHg","","BEATS/MIN","mmHg","","","","","","","","","","WEEK 4","30-JAN-2014","30-JAN-2014","","30-JAN-2014","30-JAN-2014","","","AFTER STANDING FOR 1 MINUTE","AFTER STANDING FOR 1 MINUTE","AFTER STANDING FOR 1 MINUTE",816,816,816],[18,"CDISCPILOT01","701","1015","STANDING","STANDING","STANDING","53","","59","132","","","mmHg","","BEATS/MIN","mmHg","","","","","","","","","","WEEK 4","30-JAN-2014","30-JAN-2014","","30-JAN-2014","30-JAN-2014","","","AFTER STANDING FOR 3 MINUTES","AFTER STANDING FOR 3 MINUTES","AFTER STANDING FOR 3 MINUTES",817,817,817],[19,"CDISCPILOT01","701","1015","SUPINE","SUPINE","SUPINE","72","","67","138","97.5","","mmHg","","BEATS/MIN","mmHg","F","","","","","","","","ORAL CAVITY","AMBUL ECG REMOVAL","01-FEB-2014","01-FEB-2014","","01-FEB-2014","01-FEB-2014","01-FEB-2014","","AFTER LYING DOWN FOR 5 MINUTES","AFTER LYING DOWN FOR 5 MINUTES","AFTER LYING DOWN FOR 5 MINUTES",815,815,815],[20,"CDISCPILOT01","701","1015","STANDING","STANDING","STANDING","61","","69","131","","","mmHg","","BEATS/MIN","mmHg","","","","","","","","","","AMBUL ECG REMOVAL","01-FEB-2014","01-FEB-2014","","01-FEB-2014","01-FEB-2014","","","AFTER STANDING FOR 1 MINUTE","AFTER STANDING FOR 1 MINUTE","AFTER STANDING FOR 1 MINUTE",816,816,816],[21,"CDISCPILOT01","701","1015","STANDING","STANDING","STANDING","53","","65","123","","","mmHg","","BEATS/MIN","mmHg","","","","","","","","","","AMBUL ECG REMOVAL","01-FEB-2014","01-FEB-2014","","01-FEB-2014","01-FEB-2014","","","AFTER STANDING FOR 3 MINUTES","AFTER STANDING FOR 3 MINUTES","AFTER STANDING FOR 3 MINUTES",817,817,817],[22,"CDISCPILOT01","701","1015","SUPINE","SUPINE","SUPINE","55","","55","148","97.4","117.0","mmHg","","BEATS/MIN","mmHg","F","LB","","","","","","","ORAL CAVITY","WEEK 6","12-FEB-2014","12-FEB-2014","","12-FEB-2014","12-FEB-2014","12-FEB-2014","12-FEB-2014","AFTER LYING DOWN FOR 5 MINUTES","AFTER LYING DOWN FOR 5 MINUTES","AFTER LYING DOWN FOR 5 MINUTES",815,815,815],[23,"CDISCPILOT01","701","1015","STANDING","STANDING","STANDING","63","","56","137","","","mmHg","","BEATS/MIN","mmHg","","","","","","","","","","WEEK 6","12-FEB-2014","12-FEB-2014","","12-FEB-2014","12-FEB-2014","","","AFTER STANDING FOR 1 MINUTE","AFTER STANDING FOR 1 MINUTE","AFTER STANDING FOR 1 MINUTE",816,816,816],[24,"CDISCPILOT01","701","1015","STANDING","STANDING","STANDING","60","","57","138","","","mmHg","","BEATS/MIN","mmHg","","","","","","","","","","WEEK 6","12-FEB-2014","12-FEB-2014","","12-FEB-2014","12-FEB-2014","","","AFTER STANDING FOR 3 MINUTES","AFTER STANDING FOR 3 MINUTES","AFTER STANDING FOR 3 MINUTES",817,817,817],[25,"CDISCPILOT01","701","1015","SUPINE","SUPINE","SUPINE","67","","57","138","98.0","117.0","mmHg","","BEATS/MIN","mmHg","F","LB","","","","","","","ORAL CAVITY","WEEK 8","05-MAR-2014","05-MAR-2014","","05-MAR-2014","05-MAR-2014","05-MAR-2014","05-MAR-2014","AFTER LYING DOWN FOR 5 MINUTES","AFTER LYING DOWN FOR 5 MINUTES","AFTER LYING DOWN FOR 5 MINUTES",815,815,815],[26,"CDISCPILOT01","701","1015","STANDING","STANDING","STANDING","62","","60","146","","","mmHg","","BEATS/MIN","mmHg","","","","","","","","","","WEEK 8","05-MAR-2014","05-MAR-2014","","05-MAR-2014","05-MAR-2014","","","AFTER STANDING FOR 1 MINUTE","AFTER STANDING FOR 1 MINUTE","AFTER STANDING FOR 1 MINUTE",816,816,816],[27,"CDISCPILOT01","701","1015","STANDING","STANDING","STANDING","71","","57","140","","","mmHg","","BEATS/MIN","mmHg","","","","","","","","","","WEEK 8","05-MAR-2014","05-MAR-2014","","05-MAR-2014","05-MAR-2014","","","AFTER STANDING FOR 3 MINUTES","AFTER STANDING FOR 3 MINUTES","AFTER STANDING FOR 3 MINUTES",817,817,817],[28,"CDISCPILOT01","701","1015","SUPINE","SUPINE","SUPINE","68","","54","139","97.4","117.0","mmHg","","BEATS/MIN","mmHg","F","LB","","","","","","","ORAL CAVITY","WEEK 12","26-MAR-2014","26-MAR-2014","","26-MAR-2014","26-MAR-2014","26-MAR-2014","26-MAR-2014","AFTER LYING DOWN FOR 5 MINUTES","AFTER LYING DOWN FOR 5 MINUTES","AFTER LYING DOWN FOR 5 MINUTES",815,815,815],[29,"CDISCPILOT01","701","1015","STANDING","STANDING","STANDING","60","","53","146","","","mmHg","","BEATS/MIN","mmHg","","","","","","","","","","WEEK 12","26-MAR-2014","26-MAR-2014","","26-MAR-2014","26-MAR-2014","","","AFTER STANDING FOR 1 MINUTE","AFTER STANDING FOR 1 MINUTE","AFTER STANDING FOR 1 MINUTE",816,816,816],[30,"CDISCPILOT01","701","1015","STANDING","STANDING","STANDING","64","","52","138","","","mmHg","","BEATS/MIN","mmHg","","","","","","","","","","WEEK 12","26-MAR-2014","26-MAR-2014","","26-MAR-2014","26-MAR-2014","","","AFTER STANDING FOR 3 MINUTES","AFTER STANDING FOR 3 MINUTES","AFTER STANDING FOR 3 MINUTES",817,817,817],[31,"CDISCPILOT01","701","1015","SUPINE","SUPINE","SUPINE","66","","60","163","97.9","117.0","mmHg","","BEATS/MIN","mmHg","F","LB","","","","","","","ORAL CAVITY","WEEK 16","07-MAY-2014","07-MAY-2014","","07-MAY-2014","07-MAY-2014","07-MAY-2014","07-MAY-2014","AFTER LYING DOWN FOR 5 MINUTES","AFTER LYING DOWN FOR 5 MINUTES","AFTER LYING DOWN FOR 5 MINUTES",815,815,815],[32,"CDISCPILOT01","701","1015","STANDING","STANDING","STANDING","68","","55","145","","","mmHg","","BEATS/MIN","mmHg","","","","","","","","","","WEEK 16","07-MAY-2014","07-MAY-2014","","07-MAY-2014","07-MAY-2014","","","AFTER STANDING FOR 1 MINUTE","AFTER STANDING FOR 1 MINUTE","AFTER STANDING FOR 1 MINUTE",816,816,816],[33,"CDISCPILOT01","701","1015","STANDING","STANDING","STANDING","66","","61","152","","","mmHg","","BEATS/MIN","mmHg","","","","","","","","","","WEEK 16","07-MAY-2014","07-MAY-2014","","07-MAY-2014","07-MAY-2014","","","AFTER STANDING FOR 3 MINUTES","AFTER STANDING FOR 3 MINUTES","AFTER STANDING FOR 3 MINUTES",817,817,817],[34,"CDISCPILOT01","701","1015","SUPINE","SUPINE","SUPINE","67","","54","137","97.4","117.0","mmHg","","BEATS/MIN","mmHg","F","LB","","","","","","","ORAL CAVITY","WEEK 20","21-MAY-2014","21-MAY-2014","","21-MAY-2014","21-MAY-2014","21-MAY-2014","21-MAY-2014","AFTER LYING DOWN FOR 5 MINUTES","AFTER LYING DOWN FOR 5 MINUTES","AFTER LYING DOWN FOR 5 MINUTES",815,815,815],[35,"CDISCPILOT01","701","1015","STANDING","STANDING","STANDING","65","","59","139","","","mmHg","","BEATS/MIN","mmHg","","","","","","","","","","WEEK 20","21-MAY-2014","21-MAY-2014","","21-MAY-2014","21-MAY-2014","","","AFTER STANDING FOR 1 MINUTE","AFTER STANDING FOR 1 MINUTE","AFTER STANDING FOR 1 MINUTE",816,816,816],[36,"CDISCPILOT01","701","1015","STANDING","STANDING","STANDING","63","","58","136","","","mmHg","","BEATS/MIN","mmHg","","","","","","","","","","WEEK 20","21-MAY-2014","21-MAY-2014","","21-MAY-2014","21-MAY-2014","","","AFTER STANDING FOR 3 MINUTES","AFTER STANDING FOR 3 MINUTES","AFTER STANDING FOR 3 MINUTES",817,817,817],[37,"CDISCPILOT01","701","1015","SUPINE","SUPINE","SUPINE","63","","55","129","97.7","117.0","mmHg","","BEATS/MIN","mmHg","F","LB","","","","","","","ORAL CAVITY","WEEK 24","18-JUN-2014","18-JUN-2014","","18-JUN-2014","18-JUN-2014","18-JUN-2014","18-JUN-2014","AFTER LYING DOWN FOR 5 MINUTES","AFTER LYING DOWN FOR 5 MINUTES","AFTER LYING DOWN FOR 5 MINUTES",815,815,815],[38,"CDISCPILOT01","701","1015","STANDING","STANDING","STANDING","57","","57","131","","","mmHg","","BEATS/MIN","mmHg","","","","","","","","","","WEEK 24","18-JUN-2014","18-JUN-2014","","18-JUN-2014","18-JUN-2014","","","AFTER STANDING FOR 1 MINUTE","AFTER STANDING FOR 1 MINUTE","AFTER STANDING FOR 1 MINUTE",816,816,816],[39,"CDISCPILOT01","701","1015","STANDING","STANDING","STANDING","71","","56","137","","","mmHg","","BEATS/MIN","mmHg","","","","","","","","","","WEEK 24","18-JUN-2014","18-JUN-2014","","18-JUN-2014","18-JUN-2014","","","AFTER STANDING FOR 3 MINUTES","AFTER STANDING FOR 3 MINUTES","AFTER STANDING FOR 3 MINUTES",817,817,817],[40,"CDISCPILOT01","701","1015","SUPINE","SUPINE","SUPINE","61","","60","127","97.2","118.0","mmHg","","BEATS/MIN","mmHg","F","LB","","","","","","","ORAL CAVITY","WEEK 26","02-JUL-2014","02-JUL-2014","","02-JUL-2014","02-JUL-2014","02-JUL-2014","02-JUL-2014","AFTER LYING DOWN FOR 5 MINUTES","AFTER LYING DOWN FOR 5 MINUTES","AFTER LYING DOWN FOR 5 MINUTES",815,815,815],[41,"CDISCPILOT01","701","1015","STANDING","STANDING","STANDING","59","","61","128","","","mmHg","","BEATS/MIN","mmHg","","","","","","","","","","WEEK 26","02-JUL-2014","02-JUL-2014","","02-JUL-2014","02-JUL-2014","","","AFTER STANDING FOR 1 MINUTE","AFTER STANDING FOR 1 MINUTE","AFTER STANDING FOR 1 MINUTE",816,816,816],[42,"CDISCPILOT01","701","1015","STANDING","STANDING","STANDING","55","","59","129","","","mmHg","","BEATS/MIN","mmHg","","","","","","","","","","WEEK 26","02-JUL-2014","02-JUL-2014","","02-JUL-2014","02-JUL-2014","","","AFTER STANDING FOR 3 MINUTES","AFTER STANDING FOR 3 MINUTES","AFTER STANDING FOR 3 MINUTES",817,817,817],[43,"CDISCPILOT01","701","1023","SUPINE","SUPINE","SUPINE","86","64.0","65","130","097.8","173.0","mmHg","IN","BEATS/MIN","mmHg","F","LB","","","","","","","ORAL CAVITY","SCREENING 1","22-JUL-2012","22-JUL-2012","22-JUL-2012","22-JUL-2012","22-JUL-2012","22-JUL-2012","22-JUL-2012","AFTER LYING DOWN FOR 5 MINUTES","AFTER LYING DOWN FOR 5 MINUTES","AFTER LYING DOWN FOR 5 MINUTES",815,815,815],[44,"CDISCPILOT01","701","1023","STANDING","STANDING","STANDING","89","","78","132","","","mmHg","","BEATS/MIN","mmHg","","","","","","","","","","SCREENING 1","22-JUL-2012","22-JUL-2012","","22-JUL-2012","22-JUL-2012","","","AFTER STANDING FOR 1 MINUTE","AFTER STANDING FOR 1 MINUTE","AFTER STANDING FOR 1 MINUTE",816,816,816],[45,"CDISCPILOT01","701","1023","STANDING","STANDING","STANDING","90","","74","140","","","mmHg","","BEATS/MIN","mmHg","","","","","","","","","","SCREENING 1","22-JUL-2012","22-JUL-2012","","22-JUL-2012","22-JUL-2012","","","AFTER STANDING FOR 3 MINUTES","AFTER STANDING FOR 3 MINUTES","AFTER STANDING FOR 3 MINUTES",817,817,817],[46,"CDISCPILOT01","701","1023","SUPINE","SUPINE","SUPINE","77","","79","131","097.8","","mmHg","","BEATS/MIN","mmHg","F","","","","","","","","ORAL CAVITY","SCREENING 2","03-AUG-2012","03-AUG-2012","","03-AUG-2012","03-AUG-2012","03-AUG-2012","","AFTER LYING DOWN FOR 5 MINUTES","AFTER LYING DOWN FOR 5 MINUTES","AFTER LYING DOWN FOR 5 MINUTES",815,815,815],[47,"CDISCPILOT01","701","1023","STANDING","STANDING","STANDING","79","","91","129","","","mmHg","","BEATS/MIN","mmHg","","","","","","","","","","SCREENING 2","03-AUG-2012","03-AUG-2012","","03-AUG-2012","03-AUG-2012","","","AFTER STANDING FOR 1 MINUTE","AFTER STANDING FOR 1 MINUTE","AFTER STANDING FOR 1 MINUTE",816,816,816],[48,"CDISCPILOT01","701","1023","STANDING","STANDING","STANDING","85","","92","138","","","mmHg","","BEATS/MIN","mmHg","","","","","","","","","","SCREENING 2","03-AUG-2012","03-AUG-2012","","03-AUG-2012","03-AUG-2012","","","AFTER STANDING FOR 3 MINUTES","AFTER STANDING FOR 3 MINUTES","AFTER STANDING FOR 3 MINUTES",817,817,817],[49,"CDISCPILOT01","701","1023","SUPINE","SUPINE","SUPINE","84","","68","130","097.3","177.0","mmHg","","BEATS/MIN","mmHg","F","LB","","","","","","","ORAL CAVITY","BASELINE","05-AUG-2012","05-AUG-2012","","05-AUG-2012","05-AUG-2012","05-AUG-2012","05-AUG-2012","AFTER LYING DOWN FOR 5 MINUTES","AFTER LYING DOWN FOR 5 MINUTES","AFTER LYING DOWN FOR 5 MINUTES",815,815,815],[50,"CDISCPILOT01","701","1023","STANDING","STANDING","STANDING","86","","80","132","","","mmHg","","BEATS/MIN","mmHg","","","","","","","","","","BASELINE","05-AUG-2012","05-AUG-2012","","05-AUG-2012","05-AUG-2012","","","AFTER STANDING FOR 1 MINUTE","AFTER STANDING FOR 1 MINUTE","AFTER STANDING FOR 1 MINUTE",816,816,816],[51,"CDISCPILOT01","701","1023","STANDING","STANDING","STANDING","88","","76","132","","","mmHg","","BEATS/MIN","mmHg","","","","","","","","","","BASELINE","05-AUG-2012","05-AUG-2012","","05-AUG-2012","05-AUG-2012","","","AFTER STANDING FOR 3 MINUTES","AFTER STANDING FOR 3 MINUTES","AFTER STANDING FOR 3 MINUTES",817,817,817],[52,"CDISCPILOT01","701","1023","SUPINE","SUPINE","SUPINE","82","","71","133","097.6","","mmHg","","BEATS/MIN","mmHg","F","","","","","","","","ORAL CAVITY","AMBUL ECG PLACEMENT","26-AUG-2012","26-AUG-2012","","26-AUG-2012","26-AUG-2012","26-AUG-2012","","AFTER LYING DOWN FOR 5 MINUTES","AFTER LYING DOWN FOR 5 MINUTES","AFTER LYING DOWN FOR 5 MINUTES",815,815,815],[53,"CDISCPILOT01","701","1023","STANDING","STANDING","STANDING","88","","79","130","","","mmHg","","BEATS/MIN","mmHg","","","","","","","","","","AMBUL ECG PLACEMENT","26-AUG-2012","26-AUG-2012","","26-AUG-2012","26-AUG-2012","","","AFTER STANDING FOR 1 MINUTE","AFTER STANDING FOR 1 MINUTE","AFTER STANDING FOR 1 MINUTE",816,816,816],[54,"CDISCPILOT01","701","1023","STANDING","STANDING","STANDING","89","","77","138","","","mmHg","","BEATS/MIN","mmHg","","","","","","","","","","AMBUL ECG PLACEMENT","26-AUG-2012","26-AUG-2012","","26-AUG-2012","26-AUG-2012","","","AFTER STANDING FOR 3 MINUTES","AFTER STANDING FOR 3 MINUTES","AFTER STANDING FOR 3 MINUTES",817,817,817],[55,"CDISCPILOT01","701","1023","SUPINE","SUPINE","SUPINE","88","","84","122","098.5","178.0","mmHg","","BEATS/MIN","mmHg","F","LB","","","","","","","ORAL CAVITY","WEEK 2","27-AUG-2012","27-AUG-2012","","27-AUG-2012","27-AUG-2012","27-AUG-2012","27-AUG-2012","AFTER LYING DOWN FOR 5 MINUTES","AFTER LYING DOWN FOR 5 MINUTES","AFTER LYING DOWN FOR 5 MINUTES",815,815,815],[56,"CDISCPILOT01","701","1023","STANDING","STANDING","STANDING","86","","92","130","","","mmHg","","BEATS/MIN","mmHg","","","","","","","","","","WEEK 2","27-AUG-2012","27-AUG-2012","","27-AUG-2012","27-AUG-2012","","","AFTER STANDING FOR 1 MINUTE","AFTER STANDING FOR 1 MINUTE","AFTER STANDING FOR 1 MINUTE",816,816,816],[57,"CDISCPILOT01","701","1023","STANDING","STANDING","STANDING","90","","94","138","","","mmHg","","BEATS/MIN","mmHg","","","","","","","","","","WEEK 2","27-AUG-2012","27-AUG-2012","","27-AUG-2012","27-AUG-2012","","","AFTER STANDING FOR 3 MINUTES","AFTER STANDING FOR 3 MINUTES","AFTER STANDING FOR 3 MINUTES",817,817,817],[58,"CDISCPILOT01","701","1023","SUPINE","SUPINE","SUPINE","86","","64","130","097.2","177.0","mmHg","","BEATS/MIN","mmHg","F","LB","","","","","","","ORAL CAVITY","WEEK 4","02-SEP-2012","02-SEP-2012","","02-SEP-2012","02-SEP-2012","02-SEP-2012","02-SEP-2012","AFTER LYING DOWN FOR 5 MINUTES","AFTER LYING DOWN FOR 5 MINUTES","AFTER LYING DOWN FOR 5 MINUTES",815,815,815],[59,"CDISCPILOT01","701","1023","STANDING","STANDING","STANDING","88","","76","134","","","mmHg","","BEATS/MIN","mmHg","","","","","","","","","","WEEK 4","02-SEP-2012","02-SEP-2012","","02-SEP-2012","02-SEP-2012","","","AFTER STANDING FOR 1 MINUTE","AFTER STANDING FOR 1 MINUTE","AFTER STANDING FOR 1 MINUTE",816,816,816],[60,"CDISCPILOT01","701","1023","STANDING","STANDING","STANDING","92","","70","136","","","mmHg","","BEATS/MIN","mmHg","","","","","","","","","","WEEK 4","02-SEP-2012","02-SEP-2012","","02-SEP-2012","02-SEP-2012","","","AFTER STANDING FOR 3 MINUTES","AFTER STANDING FOR 3 MINUTES","AFTER STANDING FOR 3 MINUTES",817,817,817],[61,"CDISCPILOT01","701","1023","SUPINE","SUPINE","SUPINE","89","","72","125","97.8","","mmHg","","BEATS/MIN","mmHg","F","","","","","","","","ORAL CAVITY","RETRIEVAL","18-FEB-2013","18-FEB-2013","","18-FEB-2013","18-FEB-2013","18-FEB-2013","","AFTER LYING DOWN FOR 5 MINUTES","AFTER LYING DOWN FOR 5 MINUTES","AFTER LYING DOWN FOR 5 MINUTES",815,815,815],[62,"CDISCPILOT01","701","1023","STANDING","STANDING","STANDING","86","","84","110","","","mmHg","","BEATS/MIN","mmHg","","","","","","","","","","RETRIEVAL","18-FEB-2013","18-FEB-2013","","18-FEB-2013","18-FEB-2013","","","AFTER STANDING FOR 1 MINUTE","AFTER STANDING FOR 1 MINUTE","AFTER STANDING FOR 1 MINUTE",816,816,816],[63,"CDISCPILOT01","701","1023","STANDING","STANDING","STANDING","84","","76","130","","","mmHg","","BEATS/MIN","mmHg","","","","","","","","","","RETRIEVAL","18-FEB-2013","18-FEB-2013","","18-FEB-2013","18-FEB-2013","","","AFTER STANDING FOR 3 MINUTES","AFTER STANDING FOR 3 MINUTES","AFTER STANDING FOR 3 MINUTES",817,817,817],[64,"CDISCPILOT01","701","1028","SUPINE","SUPINE","SUPINE","76","70.0","54","143","98.5","218.0","mmHg","IN","BEATS/MIN","mmHg","F","LB","","","","","","","ORAL CAVITY","SCREENING 1","11-JUL-2013","11-JUL-2013","11-JUL-2013","11-JUL-2013","11-JUL-2013","11-JUL-2013","11-JUL-2013","AFTER LYING DOWN FOR 5 MINUTES","AFTER LYING DOWN FOR 5 MINUTES","AFTER LYING DOWN FOR 5 MINUTES",815,815,815],[65,"CDISCPILOT01","701","1028","STANDING","STANDING","STANDING","70","","59","140","","","mmHg","","BEATS/MIN","mmHg","","","","","","","","","","SCREENING 1","11-JUL-2013","11-JUL-2013","","11-JUL-2013","11-JUL-2013","","","AFTER STANDING FOR 1 MINUTE","AFTER STANDING FOR 1 MINUTE","AFTER STANDING FOR 1 MINUTE",816,816,816],[66,"CDISCPILOT01","701","1028","STANDING","STANDING","STANDING","73","","59","132","","","mmHg","","BEATS/MIN","mmHg","","","","","","","","","","SCREENING 1","11-JUL-2013","11-JUL-2013","","11-JUL-2013","11-JUL-2013","","","AFTER STANDING FOR 3 MINUTES","AFTER STANDING FOR 3 MINUTES","AFTER STANDING FOR 3 MINUTES",817,817,817],[67,"CDISCPILOT01","701","1028","SUPINE","SUPINE","SUPINE","76","","68","122","96.7","","mmHg","","BEATS/MIN","mmHg","F","","","","","","","","ORAL CAVITY","SCREENING 2","17-JUL-2013","17-JUL-2013","","17-JUL-2013","17-JUL-2013","17-JUL-2013","","AFTER LYING DOWN FOR 5 MINUTES","AFTER LYING DOWN FOR 5 MINUTES","AFTER LYING DOWN FOR 5 MINUTES",815,815,815],[68,"CDISCPILOT01","701","1028","STANDING","STANDING","STANDING","76","","72","142","","","mmHg","","BEATS/MIN","mmHg","","","","","","","","","","SCREENING 2","17-JUL-2013","17-JUL-2013","","17-JUL-2013","17-JUL-2013","","","AFTER STANDING FOR 1 MINUTE","AFTER STANDING FOR 1 MINUTE","AFTER STANDING FOR 1 MINUTE",816,816,816],[69,"CDISCPILOT01","701","1028","STANDING","STANDING","STANDING","85","","74","132","","","mmHg","","BEATS/MIN","mmHg","","","","","","","","","","SCREENING 2","17-JUL-2013","17-JUL-2013","","17-JUL-2013","17-JUL-2013","","","AFTER STANDING FOR 3 MINUTES","AFTER STANDING FOR 3 MINUTES","AFTER STANDING FOR 3 MINUTES",817,817,817],[70,"CDISCPILOT01","701","1028","SUPINE","SUPINE","SUPINE","85","","62","138","98.6","219.0","mmHg","","BEATS/MIN","mmHg","F","LB","","","","","","","ORAL CAVITY","BASELINE","19-JUL-2013","19-JUL-2013","","19-JUL-2013","19-JUL-2013","19-JUL-2013","19-JUL-2013","AFTER LYING DOWN FOR 5 MINUTES","AFTER LYING DOWN FOR 5 MINUTES","AFTER LYING DOWN FOR 5 MINUTES",815,815,815],[71,"CDISCPILOT01","701","1028","STANDING","STANDING","STANDING","76","","62","145","","","mmHg","","BEATS/MIN","mmHg","","","","","","","","","","BASELINE","19-JUL-2013","19-JUL-2013","","19-JUL-2013","19-JUL-2013","","","AFTER STANDING FOR 1 MINUTE","AFTER STANDING FOR 1 MINUTE","AFTER STANDING FOR 1 MINUTE",816,816,816],[72,"CDISCPILOT01","701","1028","STANDING","STANDING","STANDING","75","","66","139","","","mmHg","","BEATS/MIN","mmHg","","","","","","","","","","BASELINE","19-JUL-2013","19-JUL-2013","","19-JUL-2013","19-JUL-2013","","","AFTER STANDING FOR 3 MINUTES","AFTER STANDING FOR 3 MINUTES","AFTER STANDING FOR 3 MINUTES",817,817,817],[73,"CDISCPILOT01","701","1028","SUPINE","SUPINE","SUPINE","82","","60","138","98.2","","mmHg","","BEATS/MIN","mmHg","F","","","","","","","","ORAL CAVITY","AMBUL ECG PLACEMENT","31-JUL-2013","31-JUL-2013","","31-JUL-2013","31-JUL-2013","31-JUL-2013","","AFTER LYING DOWN FOR 5 MINUTES","AFTER LYING DOWN FOR 5 MINUTES","AFTER LYING DOWN FOR 5 MINUTES",815,815,815],[74,"CDISCPILOT01","701","1028","STANDING","STANDING","STANDING","82","","66","137","","","mmHg","","BEATS/MIN","mmHg","","","","","","","","","","AMBUL ECG PLACEMENT","31-JUL-2013","31-JUL-2013","","31-JUL-2013","31-JUL-2013","","","AFTER STANDING FOR 1 MINUTE","AFTER STANDING FOR 1 MINUTE","AFTER STANDING FOR 1 MINUTE",816,816,816],[75,"CDISCPILOT01","701","1028","STANDING","STANDING","STANDING","84","","65","145","","","mmHg","","BEATS/MIN","mmHg","","","","","","","","","","AMBUL ECG PLACEMENT","31-JUL-2013","31-JUL-2013","","31-JUL-2013","31-JUL-2013","","","AFTER STANDING FOR 3 MINUTES","AFTER STANDING FOR 3 MINUTES","AFTER STANDING FOR 3 MINUTES",817,817,817],[76,"CDISCPILOT01","701","1028","SUPINE","SUPINE","SUPINE","78","","65","134","99.0","219.0","mmHg","","BEATS/MIN","mmHg","F","LB","","","","","","","ORAL CAVITY","WEEK 2","01-AUG-2013","01-AUG-2013","","01-AUG-2013","01-AUG-2013","01-AUG-2013","01-AUG-2013","AFTER LYING DOWN FOR 5 MINUTES","AFTER LYING DOWN FOR 5 MINUTES","AFTER LYING DOWN FOR 5 MINUTES",815,815,815],[77,"CDISCPILOT01","701","1028","STANDING","STANDING","STANDING","80","","77","138","","","mmHg","","BEATS/MIN","mmHg","","","","","","","","","","WEEK 2","01-AUG-2013","01-AUG-2013","","01-AUG-2013","01-AUG-2013","","","AFTER STANDING FOR 1 MINUTE","AFTER STANDING FOR 1 MINUTE","AFTER STANDING FOR 1 MINUTE",816,816,816],[78,"CDISCPILOT01","701","1028","STANDING","STANDING","STANDING","80","","72","131","","","mmHg","","BEATS/MIN","mmHg","","","","","","","","","","WEEK 2","01-AUG-2013","01-AUG-2013","","01-AUG-2013","01-AUG-2013","","","AFTER STANDING FOR 3 MINUTES","AFTER STANDING FOR 3 MINUTES","AFTER STANDING FOR 3 MINUTES",817,817,817],[79,"CDISCPILOT01","701","1028","SUPINE","SUPINE","SUPINE","69","","68","130","98.5","218.0","mmHg","","BEATS/MIN","mmHg","F","LB","","","","","","","ORAL CAVITY","WEEK 4","14-AUG-2013","14-AUG-2013","","14-AUG-2013","14-AUG-2013","14-AUG-2013","14-AUG-2013","AFTER LYING DOWN FOR 5 MINUTES","AFTER LYING DOWN FOR 5 MINUTES","AFTER LYING DOWN FOR 5 MINUTES",815,815,815],[80,"CDISCPILOT01","701","1028","STANDING","STANDING","STANDING","72","","81","130","","","mmHg","","BEATS/MIN","mmHg","","","","","","","","","","WEEK 4","14-AUG-2013","14-AUG-2013","","14-AUG-2013","14-AUG-2013","","","AFTER STANDING FOR 1 MINUTE","AFTER STANDING FOR 1 MINUTE","AFTER STANDING FOR 1 MINUTE",816,816,816],[81,"CDISCPILOT01","701","1028","STANDING","STANDING","STANDING","68","","76","138","","","mmHg","","BEATS/MIN","mmHg","","","","","","","","","","WEEK 4","14-AUG-2013","14-AUG-2013","","14-AUG-2013","14-AUG-2013","","","AFTER STANDING FOR 3 MINUTES","AFTER STANDING FOR 3 MINUTES","AFTER STANDING FOR 3 MINUTES",817,817,817],[82,"CDISCPILOT01","701","1028","SUPINE","SUPINE","SUPINE","76","","63","138","98.2","","mmHg","","BEATS/MIN","mmHg","F","","","","","","","","ORAL CAVITY","AMBUL ECG REMOVAL","16-AUG-2013","16-AUG-2013","","16-AUG-2013","16-AUG-2013","16-AUG-2013","","AFTER LYING DOWN FOR 5 MINUTES","AFTER LYING DOWN FOR 5 MINUTES","AFTER LYING DOWN FOR 5 MINUTES",815,815,815],[83,"CDISCPILOT01","701","1028","STANDING","STANDING","STANDING","85","","68","138","","","mmHg","","BEATS/MIN","mmHg","","","","","","","","","","AMBUL ECG REMOVAL","16-AUG-2013","16-AUG-2013","","16-AUG-2013","16-AUG-2013","","","AFTER STANDING FOR 1 MINUTE","AFTER STANDING FOR 1 MINUTE","AFTER STANDING FOR 1 MINUTE",816,816,816],[84,"CDISCPILOT01","701","1028","STANDING","STANDING","STANDING","81","","70","146","","","mmHg","","BEATS/MIN","mmHg","","","","","","","","","","AMBUL ECG REMOVAL","16-AUG-2013","16-AUG-2013","","16-AUG-2013","16-AUG-2013","","","AFTER STANDING FOR 3 MINUTES","AFTER STANDING FOR 3 MINUTES","AFTER STANDING FOR 3 MINUTES",817,817,817],[85,"CDISCPILOT01","701","1028","SUPINE","SUPINE","SUPINE","69","","56","131","97.7","217.0","mmHg","","BEATS/MIN","mmHg","F","LB","","","","","","","ORAL CAVITY","WEEK 6","29-AUG-2013","29-AUG-2013","","29-AUG-2013","29-AUG-2013","29-AUG-2013","29-AUG-2013","AFTER LYING DOWN FOR 5 MINUTES","AFTER LYING DOWN FOR 5 MINUTES","AFTER LYING DOWN FOR 5 MINUTES",815,815,815],[86,"CDISCPILOT01","701","1028","STANDING","STANDING","STANDING","77","","60","131","","","mmHg","","BEATS/MIN","mmHg","","","","","","","","","","WEEK 6","29-AUG-2013","29-AUG-2013","","29-AUG-2013","29-AUG-2013","","","AFTER STANDING FOR 1 MINUTE","AFTER STANDING FOR 1 MINUTE","AFTER STANDING FOR 1 MINUTE",816,816,816],[87,"CDISCPILOT01","701","1028","STANDING","STANDING","STANDING","76","","62","132","","","mmHg","","BEATS/MIN","mmHg","","","","","","","","","","WEEK 6","29-AUG-2013","29-AUG-2013","","29-AUG-2013","29-AUG-2013","","","AFTER STANDING FOR 3 MINUTES","AFTER STANDING FOR 3 MINUTES","AFTER STANDING FOR 3 MINUTES",817,817,817],[88,"CDISCPILOT01","701","1028","SUPINE","SUPINE","SUPINE","76","","67","137","98.1","219.0","mmHg","","BEATS/MIN","mmHg","F","LB","","","","","","","ORAL CAVITY","WEEK 8","10-SEP-2013","10-SEP-2013","","10-SEP-2013","10-SEP-2013","10-SEP-2013","10-SEP-2013","AFTER LYING DOWN FOR 5 MINUTES","AFTER LYING DOWN FOR 5 MINUTES","AFTER LYING DOWN FOR 5 MINUTES",815,815,815],[89,"CDISCPILOT01","701","1028","STANDING","STANDING","STANDING","81","","76","146","","","mmHg","","BEATS/MIN","mmHg","","","","","","","","","","WEEK 8","10-SEP-2013","10-SEP-2013","","10-SEP-2013","10-SEP-2013","","","AFTER STANDING FOR 1 MINUTE","AFTER STANDING FOR 1 MINUTE","AFTER STANDING FOR 1 MINUTE",816,816,816],[90,"CDISCPILOT01","701","1028","STANDING","STANDING","STANDING","84","","81","130","","","mmHg","","BEATS/MIN","mmHg","","","","","","","","","","WEEK 8","10-SEP-2013","10-SEP-2013","","10-SEP-2013","10-SEP-2013","","","AFTER STANDING FOR 3 MINUTES","AFTER STANDING FOR 3 MINUTES","AFTER STANDING FOR 3 MINUTES",817,817,817],[91,"CDISCPILOT01","701","1028","SUPINE","SUPINE","SUPINE","74","","61","128","98.3","218.0","mmHg","","BEATS/MIN","mmHg","F","LB","","","","","","","ORAL CAVITY","WEEK 12","09-OCT-2013","09-OCT-2013","","09-OCT-2013","09-OCT-2013","09-OCT-2013","09-OCT-2013","AFTER LYING DOWN FOR 5 MINUTES","AFTER LYING DOWN FOR 5 MINUTES","AFTER LYING DOWN FOR 5 MINUTES",815,815,815],[92,"CDISCPILOT01","701","1028","STANDING","STANDING","STANDING","83","","64","137","","","mmHg","","BEATS/MIN","mmHg","","","","","","","","","","WEEK 12","09-OCT-2013","09-OCT-2013","","09-OCT-2013","09-OCT-2013","","","AFTER STANDING FOR 1 MINUTE","AFTER STANDING FOR 1 MINUTE","AFTER STANDING FOR 1 MINUTE",816,816,816],[93,"CDISCPILOT01","701","1028","STANDING","STANDING","STANDING","80","","70","138","","","mmHg","","BEATS/MIN","mmHg","","","","","","","","","","WEEK 12","09-OCT-2013","09-OCT-2013","","09-OCT-2013","09-OCT-2013","","","AFTER STANDING FOR 3 MINUTES","AFTER STANDING FOR 3 MINUTES","AFTER STANDING FOR 3 MINUTES",817,817,817],[94,"CDISCPILOT01","701","1028","SUPINE","SUPINE","SUPINE","75","","60","122","97.8","220.0","mmHg","","BEATS/MIN","mmHg","F","LB","","","","","","","ORAL CAVITY","WEEK 16","06-NOV-2013","06-NOV-2013","","06-NOV-2013","06-NOV-2013","06-NOV-2013","06-NOV-2013","AFTER LYING DOWN FOR 5 MINUTES","AFTER LYING DOWN FOR 5 MINUTES","AFTER LYING DOWN FOR 5 MINUTES",815,815,815],[95,"CDISCPILOT01","701","1028","STANDING","STANDING","STANDING","76","","70","130","","","mmHg","","BEATS/MIN","mmHg","","","","","","","","","","WEEK 16","06-NOV-2013","06-NOV-2013","","06-NOV-2013","06-NOV-2013","","","AFTER STANDING FOR 1 MINUTE","AFTER STANDING FOR 1 MINUTE","AFTER STANDING FOR 1 MINUTE",816,816,816],[96,"CDISCPILOT01","701","1028","STANDING","STANDING","STANDING","78","","69","132","","","mmHg","","BEATS/MIN","mmHg","","","","","","","","","","WEEK 16","06-NOV-2013","06-NOV-2013","","06-NOV-2013","06-NOV-2013","","","AFTER STANDING FOR 3 MINUTES","AFTER STANDING FOR 3 MINUTES","AFTER STANDING FOR 3 MINUTES",817,817,817],[97,"CDISCPILOT01","701","1028","SUPINE","SUPINE","SUPINE","79","","60","129","97.6","220.0","mmHg","","BEATS/MIN","mmHg","F","LB","","","","","","","ORAL CAVITY","WEEK 20","04-DEC-2013","04-DEC-2013","","04-DEC-2013","04-DEC-2013","04-DEC-2013","04-DEC-2013","AFTER LYING DOWN FOR 5 MINUTES","AFTER LYING DOWN FOR 5 MINUTES","AFTER LYING DOWN FOR 5 MINUTES",815,815,815],[98,"CDISCPILOT01","701","1028","STANDING","STANDING","STANDING","76","","67","123","","","mmHg","","BEATS/MIN","mmHg","","","","","","","","","","WEEK 20","04-DEC-2013","04-DEC-2013","","04-DEC-2013","04-DEC-2013","","","AFTER STANDING FOR 1 MINUTE","AFTER STANDING FOR 1 MINUTE","AFTER STANDING FOR 1 MINUTE",816,816,816],[99,"CDISCPILOT01","701","1028","STANDING","STANDING","STANDING","77","","69","131","","","mmHg","","BEATS/MIN","mmHg","","","","","","","","","","WEEK 20","04-DEC-2013","04-DEC-2013","","04-DEC-2013","04-DEC-2013","","","AFTER STANDING FOR 3 MINUTES","AFTER STANDING FOR 3 MINUTES","AFTER STANDING FOR 3 MINUTES",817,817,817],[100,"CDISCPILOT01","701","1028","SUPINE","SUPINE","SUPINE","73","","62","130","98.8","219.0","mmHg","","BEATS/MIN","mmHg","F","LB","","","","","","","ORAL CAVITY","WEEK 24","06-JAN-2014","06-JAN-2014","","06-JAN-2014","06-JAN-2014","06-JAN-2014","06-JAN-2014","AFTER LYING DOWN FOR 5 MINUTES","AFTER LYING DOWN FOR 5 MINUTES","AFTER LYING DOWN FOR 5 MINUTES",815,815,815],[101,"CDISCPILOT01","701","1028","STANDING","STANDING","STANDING","72","","72","133","","","mmHg","","BEATS/MIN","mmHg","","","","","","","","","","WEEK 24","06-JAN-2014","06-JAN-2014","","06-JAN-2014","06-JAN-2014","","","AFTER STANDING FOR 1 MINUTE","AFTER STANDING FOR 1 MINUTE","AFTER STANDING FOR 1 MINUTE",816,816,816],[102,"CDISCPILOT01","701","1028","STANDING","STANDING","STANDING","77","","73","131","","","mmHg","","BEATS/MIN","mmHg","","","","","","","","","","WEEK 24","06-JAN-2014","06-JAN-2014","","06-JAN-2014","06-JAN-2014","","","AFTER STANDING FOR 3 MINUTES","AFTER STANDING FOR 3 MINUTES","AFTER STANDING FOR 3 MINUTES",817,817,817],[103,"CDISCPILOT01","701","1028","SUPINE","SUPINE","SUPINE","70","","53","131","97.8","220.0","mmHg","","BEATS/MIN","mmHg","F","LB","","","","","","","ORAL CAVITY","WEEK 26","14-JAN-2014","14-JAN-2014","","14-JAN-2014","14-JAN-2014","14-JAN-2014","14-JAN-2014","AFTER LYING DOWN FOR 5 MINUTES","AFTER LYING DOWN FOR 5 MINUTES","AFTER LYING DOWN FOR 5 MINUTES",815,815,815],[104,"CDISCPILOT01","701","1028","STANDING","STANDING","STANDING","79","","58","118","","","mmHg","","BEATS/MIN","mmHg","","","","","","","","","","WEEK 26","14-JAN-2014","14-JAN-2014","","14-JAN-2014","14-JAN-2014","","","AFTER STANDING FOR 1 MINUTE","AFTER STANDING FOR 1 MINUTE","AFTER STANDING FOR 1 MINUTE",816,816,816],[105,"CDISCPILOT01","701","1028","STANDING","STANDING","STANDING","77","","59","131","","","mmHg","","BEATS/MIN","mmHg","","","","","","","","","","WEEK 26","14-JAN-2014","14-JAN-2014","","14-JAN-2014","14-JAN-2014","","","AFTER STANDING FOR 3 MINUTES","AFTER STANDING FOR 3 MINUTES","AFTER STANDING FOR 3 MINUTES",817,817,817],[106,"CDISCPILOT01","701","1033","SUPINE","SUPINE","SUPINE","82","69.0","59","128","98.7","195.0","mmHg","IN","BEATS/MIN","mmHg","F","LB","","","","","","","ORAL CAVITY","SCREENING 1","10-MAR-2014","10-MAR-2014","10-MAR-2014","10-MAR-2014","10-MAR-2014","10-MAR-2014","10-MAR-2014","AFTER LYING DOWN FOR 5 MINUTES","AFTER LYING DOWN FOR 5 MINUTES","AFTER LYING DOWN FOR 5 MINUTES",815,815,815],[107,"CDISCPILOT01","701","1033","STANDING","STANDING","STANDING","67","","70","117","","","mmHg","","BEATS/MIN","mmHg","","","","","","","","","","SCREENING 1","10-MAR-2014","10-MAR-2014","","10-MAR-2014","10-MAR-2014","","","AFTER STANDING FOR 1 MINUTE","AFTER STANDING FOR 1 MINUTE","AFTER STANDING FOR 1 MINUTE",816,816,816],[108,"CDISCPILOT01","701","1033","STANDING","STANDING","STANDING","72","","67","121","","","mmHg","","BEATS/MIN","mmHg","","","","","","","","","","SCREENING 1","10-MAR-2014","10-MAR-2014","","10-MAR-2014","10-MAR-2014","","","AFTER STANDING FOR 3 MINUTES","AFTER STANDING FOR 3 MINUTES","AFTER STANDING FOR 3 MINUTES",817,817,817],[109,"CDISCPILOT01","701","1033","SUPINE","SUPINE","SUPINE","69","","67","115","98.9","","mmHg","","BEATS/MIN","mmHg","F","","","","","","","","ORAL CAVITY","SCREENING 2","16-MAR-2014","16-MAR-2014","","16-MAR-2014","16-MAR-2014","16-MAR-2014","","AFTER LYING DOWN FOR 5 MINUTES","AFTER LYING DOWN FOR 5 MINUTES","AFTER LYING DOWN FOR 5 MINUTES",815,815,815],[110,"CDISCPILOT01","701","1033","STANDING","STANDING","STANDING","60","","80","102","","","mmHg","","BEATS/MIN","mmHg","","","","","","","","","","SCREENING 2","16-MAR-2014","16-MAR-2014","","16-MAR-2014","16-MAR-2014","","","AFTER STANDING FOR 1 MINUTE","AFTER STANDING FOR 1 MINUTE","AFTER STANDING FOR 1 MINUTE",816,816,816],[111,"CDISCPILOT01","701","1033","STANDING","STANDING","STANDING","62","","82","124","","","mmHg","","BEATS/MIN","mmHg","","","","","","","","","","SCREENING 2","16-MAR-2014","16-MAR-2014","","16-MAR-2014","16-MAR-2014","","","AFTER STANDING FOR 3 MINUTES","AFTER STANDING FOR 3 MINUTES","AFTER STANDING FOR 3 MINUTES",817,817,817],[112,"CDISCPILOT01","701","1033","SUPINE","SUPINE","SUPINE","83","","55","136","98.8","195.0","mmHg","","BEATS/MIN","mmHg","F","LB","","","","","","","ORAL CAVITY","BASELINE","18-MAR-2014","18-MAR-2014","","18-MAR-2014","18-MAR-2014","18-MAR-2014","18-MAR-2014","AFTER LYING DOWN FOR 5 MINUTES","AFTER LYING DOWN FOR 5 MINUTES","AFTER LYING DOWN FOR 5 MINUTES",815,815,815],[113,"CDISCPILOT01","701","1033","STANDING","STANDING","STANDING","67","","64","116","","","mmHg","","BEATS/MIN","mmHg","","","","","","","","","","BASELINE","18-MAR-2014","18-MAR-2014","","18-MAR-2014","18-MAR-2014","","","AFTER STANDING FOR 1 MINUTE","AFTER STANDING FOR 1 MINUTE","AFTER STANDING FOR 1 MINUTE",816,816,816],[114,"CDISCPILOT01","701","1033","STANDING","STANDING","STANDING","70","","62","121","","","mmHg","","BEATS/MIN","mmHg","","","","","","","","","","BASELINE","18-MAR-2014","18-MAR-2014","","18-MAR-2014","18-MAR-2014","","","AFTER STANDING FOR 3 MINUTES","AFTER STANDING FOR 3 MINUTES","AFTER STANDING FOR 3 MINUTES",817,817,817],[115,"CDISCPILOT01","701","1033","SUPINE","SUPINE","SUPINE","84","","62","151","98.0","","mmHg","","BEATS/MIN","mmHg","F","","","","","","","","ORAL CAVITY","AMBUL ECG PLACEMENT","31-MAR-2014","31-MAR-2014","","31-MAR-2014","31-MAR-2014","31-MAR-2014","","AFTER LYING DOWN FOR 5 MINUTES","AFTER LYING DOWN FOR 5 MINUTES","AFTER LYING DOWN FOR 5 MINUTES",815,815,815],[116,"CDISCPILOT01","701","1033","STANDING","STANDING","STANDING","81","","62","139","","","mmHg","","BEATS/MIN","mmHg","","","","","","","","","","AMBUL ECG PLACEMENT","31-MAR-2014","31-MAR-2014","","31-MAR-2014","31-MAR-2014","","","AFTER STANDING FOR 1 MINUTE","AFTER STANDING FOR 1 MINUTE","AFTER STANDING FOR 1 MINUTE",816,816,816],[117,"CDISCPILOT01","701","1033","STANDING","STANDING","STANDING","85","","60","139","","","mmHg","","BEATS/MIN","mmHg","","","","","","","","","","AMBUL ECG PLACEMENT","31-MAR-2014","31-MAR-2014","","31-MAR-2014","31-MAR-2014","","","AFTER STANDING FOR 3 MINUTES","AFTER STANDING FOR 3 MINUTES","AFTER STANDING FOR 3 MINUTES",817,817,817],[118,"CDISCPILOT01","701","1033","SUPINE","SUPINE","SUPINE","84","","59","138","98.1","197.0","mmHg","","BEATS/MIN","mmHg","F","LB","","","","","","","ORAL CAVITY","WEEK 2","01-APR-2014","01-APR-2014","","01-APR-2014","01-APR-2014","01-APR-2014","01-APR-2014","AFTER LYING DOWN FOR 5 MINUTES","AFTER LYING DOWN FOR 5 MINUTES","AFTER LYING DOWN FOR 5 MINUTES",815,815,815],[119,"CDISCPILOT01","701","1033","STANDING","STANDING","STANDING","72","","62","118","","","mmHg","","BEATS/MIN","mmHg","","","","","","","","","","WEEK 2","01-APR-2014","01-APR-2014","","01-APR-2014","01-APR-2014","","","AFTER STANDING FOR 1 MINUTE","AFTER STANDING FOR 1 MINUTE","AFTER STANDING FOR 1 MINUTE",816,816,816],[120,"CDISCPILOT01","701","1033","STANDING","STANDING","STANDING","76","","62","130","","","mmHg","","BEATS/MIN","mmHg","","","","","","","","","","WEEK 2","01-APR-2014","01-APR-2014","","01-APR-2014","01-APR-2014","","","AFTER STANDING FOR 3 MINUTES","AFTER STANDING FOR 3 MINUTES","AFTER STANDING FOR 3 MINUTES",817,817,817],[121,"CDISCPILOT01","701","1033","SUPINE","SUPINE","SUPINE","76","","54","130","98.1","195.0","mmHg","","BEATS/MIN","mmHg","F","LB","","","","","","","ORAL CAVITY","WEEK 4","14-APR-2014","14-APR-2014","","14-APR-2014","14-APR-2014","14-APR-2014","14-APR-2014","AFTER LYING DOWN FOR 5 MINUTES","AFTER LYING DOWN FOR 5 MINUTES","AFTER LYING DOWN FOR 5 MINUTES",815,815,815],[122,"CDISCPILOT01","701","1033","STANDING","STANDING","STANDING","67","","57","122","","","mmHg","","BEATS/MIN","mmHg","","","","","","","","","","WEEK 4","14-APR-2014","14-APR-2014","","14-APR-2014","14-APR-2014","","","AFTER STANDING FOR 1 MINUTE","AFTER STANDING FOR 1 MINUTE","AFTER STANDING FOR 1 MINUTE",816,816,816],[123,"CDISCPILOT01","701","1033","STANDING","STANDING","STANDING","67","","58","125","","","mmHg","","BEATS/MIN","mmHg","","","","","","","","","","WEEK 4","14-APR-2014","14-APR-2014","","14-APR-2014","14-APR-2014","","","AFTER STANDING FOR 3 MINUTES","AFTER STANDING FOR 3 MINUTES","AFTER STANDING FOR 3 MINUTES",817,817,817],[124,"CDISCPILOT01","701","1033","SUPINE","SUPINE","SUPINE","79","","50","130","98.1","","mmHg","","BEATS/MIN","mmHg","F","","","","","","","","ORAL CAVITY","RETRIEVAL","15-SEP-2014","15-SEP-2014","","15-SEP-2014","15-SEP-2014","15-SEP-2014","","AFTER LYING DOWN FOR 5 MINUTES","AFTER LYING DOWN FOR 5 MINUTES","AFTER LYING DOWN FOR 5 MINUTES",815,815,815],[125,"CDISCPILOT01","701","1033","STANDING","STANDING","STANDING","71","","55","122","","","mmHg","","BEATS/MIN","mmHg","","","","","","","","","","RETRIEVAL","15-SEP-2014","15-SEP-2014","","15-SEP-2014","15-SEP-2014","","","AFTER STANDING FOR 1 MINUTE","AFTER STANDING FOR 1 MINUTE","AFTER STANDING FOR 1 MINUTE",816,816,816],[126,"CDISCPILOT01","701","1033","STANDING","STANDING","STANDING","60","","50","123","","","mmHg","","BEATS/MIN","mmHg","","","","","","","","","","RETRIEVAL","15-SEP-2014","15-SEP-2014","","15-SEP-2014","15-SEP-2014","","","AFTER STANDING FOR 3 MINUTES","AFTER STANDING FOR 3 MINUTES","AFTER STANDING FOR 3 MINUTES",817,817,817],[127,"CDISCPILOT01","701","1034","SUPINE","SUPINE","SUPINE","58","61.0","69","160","97.2","140.0","mmHg","IN","BEATS/MIN","mmHg","F","LB","","","","","","","ORAL CAVITY","SCREENING 1","24-JUN-2014","24-JUN-2014","24-JUN-2014","24-JUN-2014","24-JUN-2014","24-JUN-2014","24-JUN-2014","AFTER LYING DOWN FOR 5 MINUTES","AFTER LYING DOWN FOR 5 MINUTES","AFTER LYING DOWN FOR 5 MINUTES",815,815,815],[128,"CDISCPILOT01","701","1034","STANDING","STANDING","STANDING","73","","76","183","","","mmHg","","BEATS/MIN","mmHg","","","","","","","","","","SCREENING 1","24-JUN-2014","24-JUN-2014","","24-JUN-2014","24-JUN-2014","","","AFTER STANDING FOR 1 MINUTE","AFTER STANDING FOR 1 MINUTE","AFTER STANDING FOR 1 MINUTE",816,816,816],[129,"CDISCPILOT01","701","1034","STANDING","STANDING","STANDING","79","","74","151","","","mmHg","","BEATS/MIN","mmHg","","","","","","","","","","SCREENING 1","24-JUN-2014","24-JUN-2014","","24-JUN-2014","24-JUN-2014","","","AFTER STANDING FOR 3 MINUTES","AFTER STANDING FOR 3 MINUTES","AFTER STANDING FOR 3 MINUTES",817,817,817],[130,"CDISCPILOT01","701","1034","SUPINE","SUPINE","SUPINE","62","","75","158","97.7","","mmHg","","BEATS/MIN","mmHg","F","","","","","","","","ORAL CAVITY","SCREENING 2","29-JUN-2014","29-JUN-2014","","29-JUN-2014","29-JUN-2014","29-JUN-2014","","AFTER LYING DOWN FOR 5 MINUTES","AFTER LYING DOWN FOR 5 MINUTES","AFTER LYING DOWN FOR 5 MINUTES",815,815,815],[131,"CDISCPILOT01","701","1034","STANDING","STANDING","STANDING","81","","79","155","","","mmHg","","BEATS/MIN","mmHg","","","","","","","","","","SCREENING 2","29-JUN-2014","29-JUN-2014","","29-JUN-2014","29-JUN-2014","","","AFTER STANDING FOR 1 MINUTE","AFTER STANDING FOR 1 MINUTE","AFTER STANDING FOR 1 MINUTE",816,816,816],[132,"CDISCPILOT01","701","1034","STANDING","STANDING","STANDING","69","","79","155","","","mmHg","","BEATS/MIN","mmHg","","","","","","","","","","SCREENING 2","29-JUN-2014","29-JUN-2014","","29-JUN-2014","29-JUN-2014","","","AFTER STANDING FOR 3 MINUTES","AFTER STANDING FOR 3 MINUTES","AFTER STANDING FOR 3 MINUTES",817,817,817],[133,"CDISCPILOT01","701","1034","SUPINE","SUPINE","SUPINE","60","","76","163","98.5","138.0","mmHg","","BEATS/MIN","mmHg","F","LB","","","","","","","ORAL CAVITY","BASELINE","01-JUL-2014","01-JUL-2014","","01-JUL-2014","01-JUL-2014","01-JUL-2014","01-JUL-2014","AFTER LYING DOWN FOR 5 MINUTES","AFTER LYING DOWN FOR 5 MINUTES","AFTER LYING DOWN FOR 5 MINUTES",815,815,815],[134,"CDISCPILOT01","701","1034","STANDING","STANDING","STANDING","75","","83","177","","","mmHg","","BEATS/MIN","mmHg","","","","","","","","","","BASELINE","01-JUL-2014","01-JUL-2014","","01-JUL-2014","01-JUL-2014","","","AFTER STANDING FOR 1 MINUTE","AFTER STANDING FOR 1 MINUTE","AFTER STANDING FOR 1 MINUTE",816,816,816],[135,"CDISCPILOT01","701","1034","STANDING","STANDING","STANDING","82","","80","168","","","mmHg","","BEATS/MIN","mmHg","","","","","","","","","","BASELINE","01-JUL-2014","01-JUL-2014","","01-JUL-2014","01-JUL-2014","","","AFTER STANDING FOR 3 MINUTES","AFTER STANDING FOR 3 MINUTES","AFTER STANDING FOR 3 MINUTES",817,817,817],[136,"CDISCPILOT01","701","1034","SUPINE","SUPINE","SUPINE","81","","86","183","97.8","138.0","mmHg","","BEATS/MIN","mmHg","F","LB","","","","","","","ORAL CAVITY","WEEK 2","15-JUL-2014","15-JUL-2014","","15-JUL-2014","15-JUL-2014","15-JUL-2014","15-JUL-2014","AFTER LYING DOWN FOR 5 MINUTES","AFTER LYING DOWN FOR 5 MINUTES","AFTER LYING DOWN FOR 5 MINUTES",815,815,815],[137,"CDISCPILOT01","701","1034","STANDING","STANDING","STANDING","101","","91","191","","","mmHg","","BEATS/MIN","mmHg","","","","","","","","","","WEEK 2","15-JUL-2014","15-JUL-2014","","15-JUL-2014","15-JUL-2014","","","AFTER STANDING FOR 1 MINUTE","AFTER STANDING FOR 1 MINUTE","AFTER STANDING FOR 1 MINUTE",816,816,816],[138,"CDISCPILOT01","701","1034","STANDING","STANDING","STANDING","84","","86","161","","","mmHg","","BEATS/MIN","mmHg","","","","","","","","","","WEEK 2","15-JUL-2014","15-JUL-2014","","15-JUL-2014","15-JUL-2014","","","AFTER STANDING FOR 3 MINUTES","AFTER STANDING FOR 3 MINUTES","AFTER STANDING FOR 3 MINUTES",817,817,817],[139,"CDISCPILOT01","701","1034","SUPINE","SUPINE","SUPINE","71","","87","165","97.9","141.0","mmHg","","BEATS/MIN","mmHg","F","LB","","","","","","","ORAL CAVITY","WEEK 4","29-JUL-2014","29-JUL-2014","","29-JUL-2014","29-JUL-2014","29-JUL-2014","29-JUL-2014","AFTER LYING DOWN FOR 5 MINUTES","AFTER LYING DOWN FOR 5 MINUTES","AFTER LYING DOWN FOR 5 MINUTES",815,815,815],[140,"CDISCPILOT01","701","1034","STANDING","STANDING","STANDING","69","","91","170","","","mmHg","","BEATS/MIN","mmHg","","","","","","","","","","WEEK 4","29-JUL-2014","29-JUL-2014","","29-JUL-2014","29-JUL-2014","","","AFTER STANDING FOR 1 MINUTE","AFTER STANDING FOR 1 MINUTE","AFTER STANDING FOR 1 MINUTE",816,816,816],[141,"CDISCPILOT01","701","1034","STANDING","STANDING","STANDING","71","","88","169","","","mmHg","","BEATS/MIN","mmHg","","","","","","","","","","WEEK 4","29-JUL-2014","29-JUL-2014","","29-JUL-2014","29-JUL-2014","","","AFTER STANDING FOR 3 MINUTES","AFTER STANDING FOR 3 MINUTES","AFTER STANDING FOR 3 MINUTES",817,817,817],[142,"CDISCPILOT01","701","1034","SUPINE","SUPINE","SUPINE","54","","83","140","98.3","","mmHg","","BEATS/MIN","mmHg","F","","","","","","","","ORAL CAVITY","AMBUL ECG REMOVAL","31-JUL-2014","31-JUL-2014","","31-JUL-2014","31-JUL-2014","31-JUL-2014","","AFTER LYING DOWN FOR 5 MINUTES","AFTER LYING DOWN FOR 5 MINUTES","AFTER LYING DOWN FOR 5 MINUTES",815,815,815],[143,"CDISCPILOT01","701","1034","STANDING","STANDING","STANDING","65","","90","166","","","mmHg","","BEATS/MIN","mmHg","","","","","","","","","","AMBUL ECG REMOVAL","31-JUL-2014","31-JUL-2014","","31-JUL-2014","31-JUL-2014","","","AFTER STANDING FOR 1 MINUTE","AFTER STANDING FOR 1 MINUTE","AFTER STANDING FOR 1 MINUTE",816,816,816],[144,"CDISCPILOT01","701","1034","STANDING","STANDING","STANDING","61","","86","159","","","mmHg","","BEATS/MIN","mmHg","","","","","","","","","","AMBUL ECG REMOVAL","31-JUL-2014","31-JUL-2014","","31-JUL-2014","31-JUL-2014","","","AFTER STANDING FOR 3 MINUTES","AFTER STANDING FOR 3 MINUTES","AFTER STANDING FOR 3 MINUTES",817,817,817],[145,"CDISCPILOT01","701","1034","SUPINE","SUPINE","SUPINE","57","","97","145","98.7","141.0","mmHg","","BEATS/MIN","mmHg","F","LB","","","","","","","ORAL CAVITY","WEEK 6","11-AUG-2014","11-AUG-2014","","11-AUG-2014","11-AUG-2014","11-AUG-2014","11-AUG-2014","AFTER LYING DOWN FOR 5 MINUTES","AFTER LYING DOWN FOR 5 MINUTES","AFTER LYING DOWN FOR 5 MINUTES",815,815,815],[146,"CDISCPILOT01","701","1034","STANDING","STANDING","STANDING","76","","93","174","","","mmHg","","BEATS/MIN","mmHg","","","","","","","","","","WEEK 6","11-AUG-2014","11-AUG-2014","","11-AUG-2014","11-AUG-2014","","","AFTER STANDING FOR 1 MINUTE","AFTER STANDING FOR 1 MINUTE","AFTER STANDING FOR 1 MINUTE",816,816,816],[147,"CDISCPILOT01","701","1034","STANDING","STANDING","STANDING","80","","94","170","","","mmHg","","BEATS/MIN","mmHg","","","","","","","","","","WEEK 6","11-AUG-2014","11-AUG-2014","","11-AUG-2014","11-AUG-2014","","","AFTER STANDING FOR 3 MINUTES","AFTER STANDING FOR 3 MINUTES","AFTER STANDING FOR 3 MINUTES",817,817,817],[148,"CDISCPILOT01","701","1034","SUPINE","SUPINE","SUPINE","73","","78","188","98.1","139.0","mmHg","","BEATS/MIN","mmHg","F","LB","","","","","","","ORAL CAVITY","WEEK 8","26-AUG-2014","26-AUG-2014","","26-AUG-2014","26-AUG-2014","26-AUG-2014","26-AUG-2014","AFTER LYING DOWN FOR 5 MINUTES","AFTER LYING DOWN FOR 5 MINUTES","AFTER LYING DOWN FOR 5 MINUTES",815,815,815],[149,"CDISCPILOT01","701","1034","STANDING","STANDING","STANDING","80","","71","197","","","mmHg","","BEATS/MIN","mmHg","","","","","","","","","","WEEK 8","26-AUG-2014","26-AUG-2014","","26-AUG-2014","26-AUG-2014","","","AFTER STANDING FOR 1 MINUTE","AFTER STANDING FOR 1 MINUTE","AFTER STANDING FOR 1 MINUTE",816,816,816],[150,"CDISCPILOT01","701","1034","STANDING","STANDING","STANDING","76","","71","198","","","mmHg","","BEATS/MIN","mmHg","","","","","","","","","","WEEK 8","26-AUG-2014","26-AUG-2014","","26-AUG-2014","26-AUG-2014","","","AFTER STANDING FOR 3 MINUTES","AFTER STANDING FOR 3 MINUTES","AFTER STANDING FOR 3 MINUTES",817,817,817],[151,"CDISCPILOT01","701","1034","SUPINE","SUPINE","SUPINE","71","","66","145","98.7","139.0","mmHg","","BEATS/MIN","mmHg","F","LB","","","","","","","ORAL CAVITY","WEEK 12","25-SEP-2014","25-SEP-2014","","25-SEP-2014","25-SEP-2014","25-SEP-2014","25-SEP-2014","AFTER LYING DOWN FOR 5 MINUTES","AFTER LYING DOWN FOR 5 MINUTES","AFTER LYING DOWN FOR 5 MINUTES",815,815,815],[152,"CDISCPILOT01","701","1034","STANDING","STANDING","STANDING","66","","70","150","","","mmHg","","BEATS/MIN","mmHg","","","","","","","","","","WEEK 12","25-SEP-2014","25-SEP-2014","","25-SEP-2014","25-SEP-2014","","","AFTER STANDING FOR 1 MINUTE","AFTER STANDING FOR 1 MINUTE","AFTER STANDING FOR 1 MINUTE",816,816,816],[153,"CDISCPILOT01","701","1034","STANDING","STANDING","STANDING","63","","69","177","","","mmHg","","BEATS/MIN","mmHg","","","","","","","","","","WEEK 12","25-SEP-2014","25-SEP-2014","","25-SEP-2014","25-SEP-2014","","","AFTER STANDING FOR 3 MINUTES","AFTER STANDING FOR 3 MINUTES","AFTER STANDING FOR 3 MINUTES",817,817,817],[154,"CDISCPILOT01","701","1034","SUPINE","SUPINE","SUPINE","87","","74","154","98.5","142.0","mmHg","","BEATS/MIN","mmHg","F","LB","","","","","","","ORAL CAVITY","WEEK 16","21-OCT-2014","21-OCT-2014","","21-OCT-2014","21-OCT-2014","21-OCT-2014","21-OCT-2014","AFTER LYING DOWN FOR 5 MINUTES","AFTER LYING DOWN FOR 5 MINUTES","AFTER LYING DOWN FOR 5 MINUTES",815,815,815],[155,"CDISCPILOT01","701","1034","STANDING","STANDING","STANDING","77","","79","183","","","mmHg","","BEATS/MIN","mmHg","","","","","","","","","","WEEK 16","21-OCT-2014","21-OCT-2014","","21-OCT-2014","21-OCT-2014","","","AFTER STANDING FOR 1 MINUTE","AFTER STANDING FOR 1 MINUTE","AFTER STANDING FOR 1 MINUTE",816,816,816],[156,"CDISCPILOT01","701","1034","STANDING","STANDING","STANDING","72","","78","186","","","mmHg","","BEATS/MIN","mmHg","","","","","","","","","","WEEK 16","21-OCT-2014","21-OCT-2014","","21-OCT-2014","21-OCT-2014","","","AFTER STANDING FOR 3 MINUTES","AFTER STANDING FOR 3 MINUTES","AFTER STANDING FOR 3 MINUTES",817,817,817],[157,"CDISCPILOT01","701","1034","SUPINE","SUPINE","SUPINE","78","","86","167","98.4","143.0","mmHg","","BEATS/MIN","mmHg","F","LB","","","","","","","ORAL CAVITY","WEEK 20","18-NOV-2014","18-NOV-2014","","18-NOV-2014","18-NOV-2014","18-NOV-2014","18-NOV-2014","AFTER LYING DOWN FOR 5 MINUTES","AFTER LYING DOWN FOR 5 MINUTES","AFTER LYING DOWN FOR 5 MINUTES",815,815,815],[158,"CDISCPILOT01","701","1034","STANDING","STANDING","STANDING","77","","84","181","","","mmHg","","BEATS/MIN","mmHg","","","","","","","","","","WEEK 20","18-NOV-2014","18-NOV-2014","","18-NOV-2014","18-NOV-2014","","","AFTER STANDING FOR 1 MINUTE","AFTER STANDING FOR 1 MINUTE","AFTER STANDING FOR 1 MINUTE",816,816,816],[159,"CDISCPILOT01","701","1034","STANDING","STANDING","STANDING","72","","80","185","","","mmHg","","BEATS/MIN","mmHg","","","","","","","","","","WEEK 20","18-NOV-2014","18-NOV-2014","","18-NOV-2014","18-NOV-2014","","","AFTER STANDING FOR 3 MINUTES","AFTER STANDING FOR 3 MINUTES","AFTER STANDING FOR 3 MINUTES",817,817,817],[160,"CDISCPILOT01","701","1034","SUPINE","SUPINE","SUPINE","81","","96","178","98.1","144.0","mmHg","","BEATS/MIN","mmHg","F","LB","","","","","","","ORAL CAVITY","WEEK 24","17-DEC-2014","17-DEC-2014","","17-DEC-2014","17-DEC-2014","17-DEC-2014","17-DEC-2014","AFTER LYING DOWN FOR 5 MINUTES","AFTER LYING DOWN FOR 5 MINUTES","AFTER LYING DOWN FOR 5 MINUTES",815,815,815],[161,"CDISCPILOT01","701","1034","STANDING","STANDING","STANDING","97","","97","198","","","mmHg","","BEATS/MIN","mmHg","","","","","","","","","","WEEK 24","17-DEC-2014","17-DEC-2014","","17-DEC-2014","17-DEC-2014","","","AFTER STANDING FOR 1 MINUTE","AFTER STANDING FOR 1 MINUTE","AFTER STANDING FOR 1 MINUTE",816,816,816],[162,"CDISCPILOT01","701","1034","STANDING","STANDING","STANDING","98","","91","164","","","mmHg","","BEATS/MIN","mmHg","","","","","","","","","","WEEK 24","17-DEC-2014","17-DEC-2014","","17-DEC-2014","17-DEC-2014","","","AFTER STANDING FOR 3 MINUTES","AFTER STANDING FOR 3 MINUTES","AFTER STANDING FOR 3 MINUTES",817,817,817],[163,"CDISCPILOT01","701","1034","SUPINE","SUPINE","SUPINE","67","","74","154","97.8","141.0","mmHg","","BEATS/MIN","mmHg","F","LB","","","","","","","ORAL CAVITY","WEEK 26","30-DEC-2014","30-DEC-2014","","30-DEC-2014","30-DEC-2014","30-DEC-2014","30-DEC-2014","AFTER LYING DOWN FOR 5 MINUTES","AFTER LYING DOWN FOR 5 MINUTES","AFTER LYING DOWN FOR 5 MINUTES",815,815,815],[164,"CDISCPILOT01","701","1034","STANDING","STANDING","STANDING","93","","86","150","","","mmHg","","BEATS/MIN","mmHg","","","","","","","","","","WEEK 26","30-DEC-2014","30-DEC-2014","","30-DEC-2014","30-DEC-2014","","","AFTER STANDING FOR 1 MINUTE","AFTER STANDING FOR 1 MINUTE","AFTER STANDING FOR 1 MINUTE",816,816,816],[165,"CDISCPILOT01","701","1034","STANDING","STANDING","STANDING","66","","76","179","","","mmHg","","BEATS/MIN","mmHg","","","","","","","","","","WEEK 26","30-DEC-2014","30-DEC-2014","","30-DEC-2014","30-DEC-2014","","","AFTER STANDING FOR 3 MINUTES","AFTER STANDING FOR 3 MINUTES","AFTER STANDING FOR 3 MINUTES",817,817,817],[166,"CDISCPILOT01","701","1047","SUPINE","SUPINE","SUPINE","68","58.5","53","165","","146.0","mmHg","IN","BEATS/MIN","mmHg","","LB","","","","","","","","SCREENING 1","22-JAN-2013","22-JAN-2013","22-JAN-2013","22-JAN-2013","22-JAN-2013","","22-JAN-2013","AFTER LYING DOWN FOR 5 MINUTES","AFTER LYING DOWN FOR 5 MINUTES","AFTER LYING DOWN FOR 5 MINUTES",815,815,815],[167,"CDISCPILOT01","701","1047","STANDING","STANDING","STANDING","71","","64","162","","","mmHg","","BEATS/MIN","mmHg","","","","","","","","","","SCREENING 1","22-JAN-2013","22-JAN-2013","","22-JAN-2013","22-JAN-2013","","","AFTER STANDING FOR 1 MINUTE","AFTER STANDING FOR 1 MINUTE","AFTER STANDING FOR 1 MINUTE",816,816,816],[168,"CDISCPILOT01","701","1047","STANDING","STANDING","STANDING","83","","61","161","","","mmHg","","BEATS/MIN","mmHg","","","","","","","","","","SCREENING 1","22-JAN-2013","22-JAN-2013","","22-JAN-2013","22-JAN-2013","","","AFTER STANDING FOR 3 MINUTES","AFTER STANDING FOR 3 MINUTES","AFTER STANDING FOR 3 MINUTES",817,817,817],[169,"CDISCPILOT01","701","1047","SUPINE","SUPINE","SUPINE","65","","58","159","97.9","","mmHg","","BEATS/MIN","mmHg","F","","","","","","","","ORAL CAVITY","SCREENING 2","10-FEB-2013","10-FEB-2013","","10-FEB-2013","10-FEB-2013","10-FEB-2013","","AFTER LYING DOWN FOR 5 MINUTES","AFTER LYING DOWN FOR 5 MINUTES","AFTER LYING DOWN FOR 5 MINUTES",815,815,815],[170,"CDISCPILOT01","701","1047","STANDING","STANDING","STANDING","86","","74","152","","","mmHg","","BEATS/MIN","mmHg","","","","","","","","","","SCREENING 2","10-FEB-2013","10-FEB-2013","","10-FEB-2013","10-FEB-2013","","","AFTER STANDING FOR 1 MINUTE","AFTER STANDING FOR 1 MINUTE","AFTER STANDING FOR 1 MINUTE",816,816,816],[171,"CDISCPILOT01","701","1047","STANDING","STANDING","STANDING","71","","73","138","","","mmHg","","BEATS/MIN","mmHg","","","","","","","","","","SCREENING 2","10-FEB-2013","10-FEB-2013","","10-FEB-2013","10-FEB-2013","","","AFTER STANDING FOR 3 MINUTES","AFTER STANDING FOR 3 MINUTES","AFTER STANDING FOR 3 MINUTES",817,817,817],[172,"CDISCPILOT01","701","1047","SUPINE","SUPINE","SUPINE","61","","58","151","97.5","148.0","mmHg","","BEATS/MIN","mmHg","F","LB","","","","","","","ORAL CAVITY","BASELINE","12-FEB-2013","12-FEB-2013","","12-FEB-2013","12-FEB-2013","12-FEB-2013","12-FEB-2013","AFTER LYING DOWN FOR 5 MINUTES","AFTER LYING DOWN FOR 5 MINUTES","AFTER LYING DOWN FOR 5 MINUTES",815,815,815],[173,"CDISCPILOT01","701","1047","STANDING","STANDING","STANDING","68","","67","145","","","mmHg","","BEATS/MIN","mmHg","","","","","","","","","","BASELINE","12-FEB-2013","12-FEB-2013","","12-FEB-2013","12-FEB-2013","","","AFTER STANDING FOR 1 MINUTE","AFTER STANDING FOR 1 MINUTE","AFTER STANDING FOR 1 MINUTE",816,816,816],[174,"CDISCPILOT01","701","1047","STANDING","STANDING","STANDING","78","","67","167","","","mmHg","","BEATS/MIN","mmHg","","","","","","","","","","BASELINE","12-FEB-2013","12-FEB-2013","","12-FEB-2013","12-FEB-2013","","","AFTER STANDING FOR 3 MINUTES","AFTER STANDING FOR 3 MINUTES","AFTER STANDING FOR 3 MINUTES",817,817,817],[175,"CDISCPILOT01","701","1047","SUPINE","SUPINE","SUPINE","72","","62","146","97.0","","mmHg","","BEATS/MIN","mmHg","F","","","","","","","","ORAL CAVITY","AMBUL ECG PLACEMENT","24-FEB-2013","24-FEB-2013","","24-FEB-2013","24-FEB-2013","24-FEB-2013","","AFTER LYING DOWN FOR 5 MINUTES","AFTER LYING DOWN FOR 5 MINUTES","AFTER LYING DOWN FOR 5 MINUTES",815,815,815],[176,"CDISCPILOT01","701","1047","STANDING","STANDING","STANDING","56","","74","137","","","mmHg","","BEATS/MIN","mmHg","","","","","","","","","","AMBUL ECG PLACEMENT","24-FEB-2013","24-FEB-2013","","24-FEB-2013","24-FEB-2013","","","AFTER STANDING FOR 1 MINUTE","AFTER STANDING FOR 1 MINUTE","AFTER STANDING FOR 1 MINUTE",816,816,816],[177,"CDISCPILOT01","701","1047","STANDING","STANDING","STANDING","73","","72","148","","","mmHg","","BEATS/MIN","mmHg","","","","","","","","","","AMBUL ECG PLACEMENT","24-FEB-2013","24-FEB-2013","","24-FEB-2013","24-FEB-2013","","","AFTER STANDING FOR 3 MINUTES","AFTER STANDING FOR 3 MINUTES","AFTER STANDING FOR 3 MINUTES",817,817,817],[178,"CDISCPILOT01","701","1047","SUPINE","SUPINE","SUPINE","72","","66","145","98.9","149.0","mmHg","","BEATS/MIN","mmHg","F","LB","","","","","","","ORAL CAVITY","WEEK 2","25-FEB-2013","25-FEB-2013","","25-FEB-2013","25-FEB-2013","25-FEB-2013","25-FEB-2013","AFTER LYING DOWN FOR 5 MINUTES","AFTER LYING DOWN FOR 5 MINUTES","AFTER LYING DOWN FOR 5 MINUTES",815,815,815],[179,"CDISCPILOT01","701","1047","STANDING","STANDING","STANDING","84","","75","146","","","mmHg","","BEATS/MIN","mmHg","","","","","","","","","","WEEK 2","25-FEB-2013","25-FEB-2013","","25-FEB-2013","25-FEB-2013","","","AFTER STANDING FOR 1 MINUTE","AFTER STANDING FOR 1 MINUTE","AFTER STANDING FOR 1 MINUTE",816,816,816],[180,"CDISCPILOT01","701","1047","STANDING","STANDING","STANDING","73","","78","153","","","mmHg","","BEATS/MIN","mmHg","","","","","","","","","","WEEK 2","25-FEB-2013","25-FEB-2013","","25-FEB-2013","25-FEB-2013","","","AFTER STANDING FOR 3 MINUTES","AFTER STANDING FOR 3 MINUTES","AFTER STANDING FOR 3 MINUTES",817,817,817],[181,"CDISCPILOT01","701","1047","SUPINE","SUPINE","SUPINE","72","","69","135","97.8","149.0","mmHg","","BEATS/MIN","mmHg","F","LB","","","","","","","ORAL CAVITY","WEEK 4","10-MAR-2013","10-MAR-2013","","10-MAR-2013","10-MAR-2013","10-MAR-2013","10-MAR-2013","AFTER LYING DOWN FOR 5 MINUTES","AFTER LYING DOWN FOR 5 MINUTES","AFTER LYING DOWN FOR 5 MINUTES",815,815,815],[182,"CDISCPILOT01","701","1047","STANDING","STANDING","STANDING","71","","64","145","","","mmHg","","BEATS/MIN","mmHg","","","","","","","","","","WEEK 4","10-MAR-2013","10-MAR-2013","","10-MAR-2013","10-MAR-2013","","","AFTER STANDING FOR 1 MINUTE","AFTER STANDING FOR 1 MINUTE","AFTER STANDING FOR 1 MINUTE",816,816,816],[183,"CDISCPILOT01","701","1047","STANDING","STANDING","STANDING","78","","70","143","","","mmHg","","BEATS/MIN","mmHg","","","","","","","","","","WEEK 4","10-MAR-2013","10-MAR-2013","","10-MAR-2013","10-MAR-2013","","","AFTER STANDING FOR 3 MINUTES","AFTER STANDING FOR 3 MINUTES","AFTER STANDING FOR 3 MINUTES",817,817,817],[184,"CDISCPILOT01","701","1047","SUPINE","SUPINE","SUPINE","71","","78","123","98.5","148.0","mmHg","","BEATS/MIN","mmHg","F","LB","","","","","","","ORAL CAVITY","AMBUL ECG REMOVAL","29-MAR-2013","29-MAR-2013","","29-MAR-2013","29-MAR-2013","29-MAR-2013","29-MAR-2013","AFTER LYING DOWN FOR 5 MINUTES","AFTER LYING DOWN FOR 5 MINUTES","AFTER LYING DOWN FOR 5 MINUTES",815,815,815],[185,"CDISCPILOT01","701","1047","STANDING","STANDING","STANDING","63","","90","115","","","mmHg","","BEATS/MIN","mmHg","","","","","","","","","","AMBUL ECG REMOVAL","29-MAR-2013","29-MAR-2013","","29-MAR-2013","29-MAR-2013","","","AFTER STANDING FOR 1 MINUTE","AFTER STANDING FOR 1 MINUTE","AFTER STANDING FOR 1 MINUTE",816,816,816],[186,"CDISCPILOT01","701","1047","STANDING","STANDING","STANDING","57","","87","123","","","mmHg","","BEATS/MIN","mmHg","","","","","","","","","","AMBUL ECG REMOVAL","29-MAR-2013","29-MAR-2013","","29-MAR-2013","29-MAR-2013","","","AFTER STANDING FOR 3 MINUTES","AFTER STANDING FOR 3 MINUTES","AFTER STANDING FOR 3 MINUTES",817,817,817],[187,"CDISCPILOT01","701","1047","SUPINE","SUPINE","SUPINE","76","","58","139","98.4","","mmHg","","BEATS/MIN","mmHg","F","","","","","","","","ORAL CAVITY","RETRIEVAL","28-JUL-2013","28-JUL-2013","","28-JUL-2013","28-JUL-2013","28-JUL-2013","","AFTER LYING DOWN FOR 5 MINUTES","AFTER LYING DOWN FOR 5 MINUTES","AFTER LYING DOWN FOR 5 MINUTES",815,815,815],[188,"CDISCPILOT01","701","1047","STANDING","STANDING","STANDING","71","","72","130","","","mmHg","","BEATS/MIN","mmHg","","","","","","","","","","RETRIEVAL","28-JUL-2013","28-JUL-2013","","28-JUL-2013","28-JUL-2013","","","AFTER STANDING FOR 1 MINUTE","AFTER STANDING FOR 1 MINUTE","AFTER STANDING FOR 1 MINUTE",816,816,816],[189,"CDISCPILOT01","701","1047","STANDING","STANDING","STANDING","65","","72","139","","","mmHg","","BEATS/MIN","mmHg","","","","","","","","","","RETRIEVAL","28-JUL-2013","28-JUL-2013","","28-JUL-2013","28-JUL-2013","","","AFTER STANDING FOR 3 MINUTES","AFTER STANDING FOR 3 MINUTES","AFTER STANDING FOR 3 MINUTES",817,817,817],[190,"CDISCPILOT01","701","1097","SUPINE","SUPINE","SUPINE","72","066.5","59","138","096.4","172.0","mmHg","IN","BEATS/MIN","mmHg","F","LB","","","","","","","ORAL CAVITY","SCREENING 1","23-DEC-2013","23-DEC-2013","23-DEC-2013","23-DEC-2013","23-DEC-2013","23-DEC-2013","23-DEC-2013","AFTER LYING DOWN FOR 5 MINUTES","AFTER LYING DOWN FOR 5 MINUTES","AFTER LYING DOWN FOR 5 MINUTES",815,815,815],[191,"CDISCPILOT01","701","1097","STANDING","STANDING","STANDING","74","","66","137","","","mmHg","","BEATS/MIN","mmHg","","","","","","","","","","SCREENING 1","23-DEC-2013","23-DEC-2013","","23-DEC-2013","23-DEC-2013","","","AFTER STANDING FOR 1 MINUTE","AFTER STANDING FOR 1 MINUTE","AFTER STANDING FOR 1 MINUTE",816,816,816],[192,"CDISCPILOT01","701","1097","STANDING","STANDING","STANDING","79","","65","139","","","mmHg","","BEATS/MIN","mmHg","","","","","","","","","","SCREENING 1","23-DEC-2013","23-DEC-2013","","23-DEC-2013","23-DEC-2013","","","AFTER STANDING FOR 3 MINUTES","AFTER STANDING FOR 3 MINUTES","AFTER STANDING FOR 3 MINUTES",817,817,817],[193,"CDISCPILOT01","701","1097","SUPINE","SUPINE","SUPINE","65","","60","131","098.1","","mmHg","","BEATS/MIN","mmHg","F","","","","","","","","ORAL CAVITY","SCREENING 2","30-DEC-2013","30-DEC-2013","","30-DEC-2013","30-DEC-2013","30-DEC-2013","","AFTER LYING DOWN FOR 5 MINUTES","AFTER LYING DOWN FOR 5 MINUTES","AFTER LYING DOWN FOR 5 MINUTES",815,815,815],[194,"CDISCPILOT01","701","1097","STANDING","STANDING","STANDING","76","","70","138","","","mmHg","","BEATS/MIN","mmHg","","","","","","","","","","SCREENING 2","30-DEC-2013","30-DEC-2013","","30-DEC-2013","30-DEC-2013","","","AFTER STANDING FOR 1 MINUTE","AFTER STANDING FOR 1 MINUTE","AFTER STANDING FOR 1 MINUTE",816,816,816],[195,"CDISCPILOT01","701","1097","STANDING","STANDING","STANDING","80","","66","138","","","mmHg","","BEATS/MIN","mmHg","","","","","","","","","","SCREENING 2","30-DEC-2013","30-DEC-2013","","30-DEC-2013","30-DEC-2013","","","AFTER STANDING FOR 3 MINUTES","AFTER STANDING FOR 3 MINUTES","AFTER STANDING FOR 3 MINUTES",817,817,817],[196,"CDISCPILOT01","701","1097","SUPINE","SUPINE","SUPINE","72","","60","128","097.6","172.0","mmHg","","BEATS/MIN","mmHg","F","LB","","","","","","","ORAL CAVITY","BASELINE","01-JAN-2014","01-JAN-2014","","01-JAN-2014","01-JAN-2014","01-JAN-2014","01-JAN-2014","AFTER LYING DOWN FOR 5 MINUTES","AFTER LYING DOWN FOR 5 MINUTES","AFTER LYING DOWN FOR 5 MINUTES",815,815,815],[197,"CDISCPILOT01","701","1097","STANDING","STANDING","STANDING","78","","68","130","","","mmHg","","BEATS/MIN","mmHg","","","","","","","","","","BASELINE","01-JAN-2014","01-JAN-2014","","01-JAN-2014","01-JAN-2014","","","AFTER STANDING FOR 1 MINUTE","AFTER STANDING FOR 1 MINUTE","AFTER STANDING FOR 1 MINUTE",816,816,816],[198,"CDISCPILOT01","701","1097","STANDING","STANDING","STANDING","80","","64","132","","","mmHg","","BEATS/MIN","mmHg","","","","","","","","","","BASELINE","01-JAN-2014","01-JAN-2014","","01-JAN-2014","01-JAN-2014","","","AFTER STANDING FOR 3 MINUTES","AFTER STANDING FOR 3 MINUTES","AFTER STANDING FOR 3 MINUTES",817,817,817],[199,"CDISCPILOT01","701","1097","SUPINE","SUPINE","SUPINE","67","","55","121","097.9","","mmHg","","BEATS/MIN","mmHg","F","","","","","","","","ORAL CAVITY","AMBUL ECG PLACEMENT","14-JAN-2014","14-JAN-2014","","14-JAN-2014","14-JAN-2014","14-JAN-2014","","AFTER LYING DOWN FOR 5 MINUTES","AFTER LYING DOWN FOR 5 MINUTES","AFTER LYING DOWN FOR 5 MINUTES",815,815,815],[200,"CDISCPILOT01","701","1097","STANDING","STANDING","STANDING","79","","59","144","","","mmHg","","BEATS/MIN","mmHg","","","","","","","","","","AMBUL ECG PLACEMENT","14-JAN-2014","14-JAN-2014","","14-JAN-2014","14-JAN-2014","","","AFTER STANDING FOR 1 MINUTE","AFTER STANDING FOR 1 MINUTE","AFTER STANDING FOR 1 MINUTE",816,816,816],[201,"CDISCPILOT01","701","1097","STANDING","STANDING","STANDING","67","","60","130","","","mmHg","","BEATS/MIN","mmHg","","","","","","","","","","AMBUL ECG PLACEMENT","14-JAN-2014","14-JAN-2014","","14-JAN-2014","14-JAN-2014","","","AFTER STANDING FOR 3 MINUTES","AFTER STANDING FOR 3 MINUTES","AFTER STANDING FOR 3 MINUTES",817,817,817],[202,"CDISCPILOT01","701","1097","SUPINE","SUPINE","SUPINE","72","","66","124","097.7","175.0","mmHg","","BEATS/MIN","mmHg","F","LB","","","","","","","ORAL CAVITY","WEEK 2","15-JAN-2014","15-JAN-2014","","15-JAN-2014","15-JAN-2014","15-JAN-2014","15-JAN-2014","AFTER LYING DOWN FOR 5 MINUTES","AFTER LYING DOWN FOR 5 MINUTES","AFTER LYING DOWN FOR 5 MINUTES",815,815,815],[203,"CDISCPILOT01","701","1097","STANDING","STANDING","STANDING","82","","72","130","","","mmHg","","BEATS/MIN","mmHg","","","","","","","","","","WEEK 2","15-JAN-2014","15-JAN-2014","","15-JAN-2014","15-JAN-2014","","","AFTER STANDING FOR 1 MINUTE","AFTER STANDING FOR 1 MINUTE","AFTER STANDING FOR 1 MINUTE",816,816,816],[204,"CDISCPILOT01","701","1097","STANDING","STANDING","STANDING","84","","68","132","","","mmHg","","BEATS/MIN","mmHg","","","","","","","","","","WEEK 2","15-JAN-2014","15-JAN-2014","","15-JAN-2014","15-JAN-2014","","","AFTER STANDING FOR 3 MINUTES","AFTER STANDING FOR 3 MINUTES","AFTER STANDING FOR 3 MINUTES",817,817,817],[205,"CDISCPILOT01","701","1097","SUPINE","SUPINE","SUPINE","71","","50","137","93.7","175.0","mmHg","","BEATS/MIN","mmHg","F","LB","","","","","","","ORAL CAVITY","WEEK 4","29-JAN-2014","29-JAN-2014","","29-JAN-2014","29-JAN-2014","29-JAN-2014","29-JAN-2014","AFTER LYING DOWN FOR 5 MINUTES","AFTER LYING DOWN FOR 5 MINUTES","AFTER LYING DOWN FOR 5 MINUTES",815,815,815],[206,"CDISCPILOT01","701","1097","STANDING","STANDING","STANDING","70","","54","134","","","mmHg","","BEATS/MIN","mmHg","","","","","","","","","","WEEK 4","29-JAN-2014","29-JAN-2014","","29-JAN-2014","29-JAN-2014","","","AFTER STANDING FOR 1 MINUTE","AFTER STANDING FOR 1 MINUTE","AFTER STANDING FOR 1 MINUTE",816,816,816],[207,"CDISCPILOT01","701","1097","STANDING","STANDING","STANDING","68","","54","137","","","mmHg","","BEATS/MIN","mmHg","","","","","","","","","","WEEK 4","29-JAN-2014","29-JAN-2014","","29-JAN-2014","29-JAN-2014","","","AFTER STANDING FOR 3 MINUTES","AFTER STANDING FOR 3 MINUTES","AFTER STANDING FOR 3 MINUTES",817,817,817],[208,"CDISCPILOT01","701","1097","SUPINE","SUPINE","SUPINE","68","","62","132","098.0","","mmHg","","BEATS/MIN","mmHg","F","","","","","","","","ORAL CAVITY","AMBUL ECG REMOVAL","04-FEB-2014","04-FEB-2014","","04-FEB-2014","04-FEB-2014","04-FEB-2014","","AFTER LYING DOWN FOR 5 MINUTES","AFTER LYING DOWN FOR 5 MINUTES","AFTER LYING DOWN FOR 5 MINUTES",815,815,815],[209,"CDISCPILOT01","701","1097","STANDING","STANDING","STANDING","70","","68","132","","","mmHg","","BEATS/MIN","mmHg","","","","","","","","","","AMBUL ECG REMOVAL","04-FEB-2014","04-FEB-2014","","04-FEB-2014","04-FEB-2014","","","AFTER STANDING FOR 1 MINUTE","AFTER STANDING FOR 1 MINUTE","AFTER STANDING FOR 1 MINUTE",816,816,816],[210,"CDISCPILOT01","701","1097","STANDING","STANDING","STANDING","70","","66","138","","","mmHg","","BEATS/MIN","mmHg","","","","","","","","","","AMBUL ECG REMOVAL","04-FEB-2014","04-FEB-2014","","04-FEB-2014","04-FEB-2014","","","AFTER STANDING FOR 3 MINUTES","AFTER STANDING FOR 3 MINUTES","AFTER STANDING FOR 3 MINUTES",817,817,817],[211,"CDISCPILOT01","701","1097","SUPINE","SUPINE","SUPINE","68","","64","122","097.6","175.0","mmHg","","BEATS/MIN","mmHg","F","LB","","","","","","","ORAL CAVITY","WEEK 6","11-FEB-2014","11-FEB-2014","","11-FEB-2014","11-FEB-2014","11-FEB-2014","11-FEB-2014","AFTER LYING DOWN FOR 5 MINUTES","AFTER LYING DOWN FOR 5 MINUTES","AFTER LYING DOWN FOR 5 MINUTES",815,815,815],[212,"CDISCPILOT01","701","1097","STANDING","STANDING","STANDING","70","","76","124","","","mmHg","","BEATS/MIN","mmHg","","","","","","","","","","WEEK 6","11-FEB-2014","11-FEB-2014","","11-FEB-2014","11-FEB-2014","","","AFTER STANDING FOR 1 MINUTE","AFTER STANDING FOR 1 MINUTE","AFTER STANDING FOR 1 MINUTE",816,816,816],[213,"CDISCPILOT01","701","1097","STANDING","STANDING","STANDING","78","","74","124","","","mmHg","","BEATS/MIN","mmHg","","","","","","","","","","WEEK 6","11-FEB-2014","11-FEB-2014","","11-FEB-2014","11-FEB-2014","","","AFTER STANDING FOR 3 MINUTES","AFTER STANDING FOR 3 MINUTES","AFTER STANDING FOR 3 MINUTES",817,817,817],[214,"CDISCPILOT01","701","1097","SUPINE","SUPINE","SUPINE","75","","54","136","98.3","173.0","mmHg","","BEATS/MIN","mmHg","F","LB","","","","","","","ORAL CAVITY","WEEK 8","26-FEB-2014","26-FEB-2014","","26-FEB-2014","26-FEB-2014","26-FEB-2014","26-FEB-2014","AFTER LYING DOWN FOR 5 MINUTES","AFTER LYING DOWN FOR 5 MINUTES","AFTER LYING DOWN FOR 5 MINUTES",815,815,815],[215,"CDISCPILOT01","701","1097","STANDING","STANDING","STANDING","73","","62","130","","","mmHg","","BEATS/MIN","mmHg","","","","","","","","","","WEEK 8","26-FEB-2014","26-FEB-2014","","26-FEB-2014","26-FEB-2014","","","AFTER STANDING FOR 1 MINUTE","AFTER STANDING FOR 1 MINUTE","AFTER STANDING FOR 1 MINUTE",816,816,816],[216,"CDISCPILOT01","701","1097","STANDING","STANDING","STANDING","66","","61","131","","","mmHg","","BEATS/MIN","mmHg","","","","","","","","","","WEEK 8","26-FEB-2014","26-FEB-2014","","26-FEB-2014","26-FEB-2014","","","AFTER STANDING FOR 3 MINUTES","AFTER STANDING FOR 3 MINUTES","AFTER STANDING FOR 3 MINUTES",817,817,817],[217,"CDISCPILOT01","701","1097","SUPINE","SUPINE","SUPINE","74","","58","121","97.5","176.0","mmHg","","BEATS/MIN","mmHg","F","LB","","","","","","","ORAL CAVITY","WEEK 12","26-MAR-2014","26-MAR-2014","","26-MAR-2014","26-MAR-2014","26-MAR-2014","26-MAR-2014","AFTER LYING DOWN FOR 5 MINUTES","AFTER LYING DOWN FOR 5 MINUTES","AFTER LYING DOWN FOR 5 MINUTES",815,815,815],[218,"CDISCPILOT01","701","1097","STANDING","STANDING","STANDING","70","","72","132","","","mmHg","","BEATS/MIN","mmHg","","","","","","","","","","WEEK 12","26-MAR-2014","26-MAR-2014","","26-MAR-2014","26-MAR-2014","","","AFTER STANDING FOR 1 MINUTE","AFTER STANDING FOR 1 MINUTE","AFTER STANDING FOR 1 MINUTE",816,816,816],[219,"CDISCPILOT01","701","1097","STANDING","STANDING","STANDING","72","","70","139","","","mmHg","","BEATS/MIN","mmHg","","","","","","","","","","WEEK 12","26-MAR-2014","26-MAR-2014","","26-MAR-2014","26-MAR-2014","","","AFTER STANDING FOR 3 MINUTES","AFTER STANDING FOR 3 MINUTES","AFTER STANDING FOR 3 MINUTES",817,817,817],[220,"CDISCPILOT01","701","1097","SUPINE","SUPINE","SUPINE","70","","67","132","98.1","175.0","mmHg","","BEATS/MIN","mmHg","F","LB","","","","","","","ORAL CAVITY","WEEK 16","23-APR-2014","23-APR-2014","","23-APR-2014","23-APR-2014","23-APR-2014","23-APR-2014","AFTER LYING DOWN FOR 5 MINUTES","AFTER LYING DOWN FOR 5 MINUTES","AFTER LYING DOWN FOR 5 MINUTES",815,815,815],[221,"CDISCPILOT01","701","1097","STANDING","STANDING","STANDING","76","","74","138","","","mmHg","","BEATS/MIN","mmHg","","","","","","","","","","WEEK 16","23-APR-2014","23-APR-2014","","23-APR-2014","23-APR-2014","","","AFTER STANDING FOR 1 MINUTE","AFTER STANDING FOR 1 MINUTE","AFTER STANDING FOR 1 MINUTE",816,816,816],[222,"CDISCPILOT01","701","1097","STANDING","STANDING","STANDING","74","","72","139","","","mmHg","","BEATS/MIN","mmHg","","","","","","","","","","WEEK 16","23-APR-2014","23-APR-2014","","23-APR-2014","23-APR-2014","","","AFTER STANDING FOR 3 MINUTES","AFTER STANDING FOR 3 MINUTES","AFTER STANDING FOR 3 MINUTES",817,817,817],[223,"CDISCPILOT01","701","1097","SUPINE","SUPINE","SUPINE","67","","61","121","97.6","176.0","mmHg","","BEATS/MIN","mmHg","F","LB","","","","","","","ORAL CAVITY","WEEK 20","21-MAY-2014","21-MAY-2014","","21-MAY-2014","21-MAY-2014","21-MAY-2014","21-MAY-2014","AFTER LYING DOWN FOR 5 MINUTES","AFTER LYING DOWN FOR 5 MINUTES","AFTER LYING DOWN FOR 5 MINUTES",815,815,815],[224,"CDISCPILOT01","701","1097","STANDING","STANDING","STANDING","58","","70","112","","","mmHg","","BEATS/MIN","mmHg","","","","","","","","","","WEEK 20","21-MAY-2014","21-MAY-2014","","21-MAY-2014","21-MAY-2014","","","AFTER STANDING FOR 1 MINUTE","AFTER STANDING FOR 1 MINUTE","AFTER STANDING FOR 1 MINUTE",816,816,816],[225,"CDISCPILOT01","701","1097","STANDING","STANDING","STANDING","61","","67","115","","","mmHg","","BEATS/MIN","mmHg","","","","","","","","","","WEEK 20","21-MAY-2014","21-MAY-2014","","21-MAY-2014","21-MAY-2014","","","AFTER STANDING FOR 3 MINUTES","AFTER STANDING FOR 3 MINUTES","AFTER STANDING FOR 3 MINUTES",817,817,817],[226,"CDISCPILOT01","701","1097","SUPINE","SUPINE","SUPINE","83","","65","137","98.6","177.0","mmHg","","BEATS/MIN","mmHg","F","LB","","","","","","","ORAL CAVITY","WEEK 24","18-JUN-2014","18-JUN-2014","","18-JUN-2014","18-JUN-2014","18-JUN-2014","18-JUN-2014","AFTER LYING DOWN FOR 5 MINUTES","AFTER LYING DOWN FOR 5 MINUTES","AFTER LYING DOWN FOR 5 MINUTES",815,815,815],[227,"CDISCPILOT01","701","1097","STANDING","STANDING","STANDING","84","","74","131","","","mmHg","","BEATS/MIN","mmHg","","","","","","","","","","WEEK 24","18-JUN-2014","18-JUN-2014","","18-JUN-2014","18-JUN-2014","","","AFTER STANDING FOR 1 MINUTE","AFTER STANDING FOR 1 MINUTE","AFTER STANDING FOR 1 MINUTE",816,816,816],[228,"CDISCPILOT01","701","1097","STANDING","STANDING","STANDING","84","","72","130","","","mmHg","","BEATS/MIN","mmHg","","","","","","","","","","WEEK 24","18-JUN-2014","18-JUN-2014","","18-JUN-2014","18-JUN-2014","","","AFTER STANDING FOR 3 MINUTES","AFTER STANDING FOR 3 MINUTES","AFTER STANDING FOR 3 MINUTES",817,817,817],[229,"CDISCPILOT01","701","1097","SUPINE","SUPINE","SUPINE","72","","58","123","97.8","173.0","mmHg","","BEATS/MIN","mmHg","F","LB","","","","","","","ORAL CAVITY","WEEK 26","09-JUL-2014","09-JUL-2014","","09-JUL-2014","09-JUL-2014","09-JUL-2014","09-JUL-2014","AFTER LYING DOWN FOR 5 MINUTES","AFTER LYING DOWN FOR 5 MINUTES","AFTER LYING DOWN FOR 5 MINUTES",815,815,815],[230,"CDISCPILOT01","701","1097","STANDING","STANDING","STANDING","78","","76","132","","","mmHg","","BEATS/MIN","mmHg","","","","","","","","","","WEEK 26","09-JUL-2014","09-JUL-2014","","09-JUL-2014","09-JUL-2014","","","AFTER STANDING FOR 1 MINUTE","AFTER STANDING FOR 1 MINUTE","AFTER STANDING FOR 1 MINUTE",816,816,816],[231,"CDISCPILOT01","701","1097","STANDING","STANDING","STANDING","77","","66","131","","","mmHg","","BEATS/MIN","mmHg","","","","","","","","","","WEEK 26","09-JUL-2014","09-JUL-2014","","09-JUL-2014","09-JUL-2014","","","AFTER STANDING FOR 3 MINUTES","AFTER STANDING FOR 3 MINUTES","AFTER STANDING FOR 3 MINUTES",817,817,817],[232,"CDISCPILOT01","701","1111","SUPINE","SUPINE","SUPINE","74","062.3","80","137","98.6","133.0","mmHg","IN","BEATS/MIN","mmHg","F","LB","","","","","","","ORAL CAVITY","SCREENING 1","25-AUG-2012","25-AUG-2012","25-AUG-2012","25-AUG-2012","25-AUG-2012","25-AUG-2012","25-AUG-2012","AFTER LYING DOWN FOR 5 MINUTES","AFTER LYING DOWN FOR 5 MINUTES","AFTER LYING DOWN FOR 5 MINUTES",815,815,815],[233,"CDISCPILOT01","701","1111","STANDING","STANDING","STANDING","75","","85","129","","","mmHg","","BEATS/MIN","mmHg","","","","","","","","","","SCREENING 1","25-AUG-2012","25-AUG-2012","","25-AUG-2012","25-AUG-2012","","","AFTER STANDING FOR 1 MINUTE","AFTER STANDING FOR 1 MINUTE","AFTER STANDING FOR 1 MINUTE",816,816,816],[234,"CDISCPILOT01","701","1111","STANDING","STANDING","STANDING","65","","84","122","","","mmHg","","BEATS/MIN","mmHg","","","","","","","","","","SCREENING 1","25-AUG-2012","25-AUG-2012","","25-AUG-2012","25-AUG-2012","","","AFTER STANDING FOR 3 MINUTES","AFTER STANDING FOR 3 MINUTES","AFTER STANDING FOR 3 MINUTES",817,817,817],[235,"CDISCPILOT01","701","1111","SUPINE","SUPINE","SUPINE","63","","84","137","97.9","","mmHg","","BEATS/MIN","mmHg","F","","","","","","","","ORAL CAVITY","SCREENING 2","05-SEP-2012","05-SEP-2012","","05-SEP-2012","05-SEP-2012","05-SEP-2012","","AFTER LYING DOWN FOR 5 MINUTES","AFTER LYING DOWN FOR 5 MINUTES","AFTER LYING DOWN FOR 5 MINUTES",815,815,815],[236,"CDISCPILOT01","701","1111","STANDING","STANDING","STANDING","74","","94","121","","","mmHg","","BEATS/MIN","mmHg","","","","","","","","","","SCREENING 2","05-SEP-2012","05-SEP-2012","","05-SEP-2012","05-SEP-2012","","","AFTER STANDING FOR 1 MINUTE","AFTER STANDING FOR 1 MINUTE","AFTER STANDING FOR 1 MINUTE",816,816,816],[237,"CDISCPILOT01","701","1111","STANDING","STANDING","STANDING","74","","89","129","","","mmHg","","BEATS/MIN","mmHg","","","","","","","","","","SCREENING 2","05-SEP-2012","05-SEP-2012","","05-SEP-2012","05-SEP-2012","","","AFTER STANDING FOR 3 MINUTES","AFTER STANDING FOR 3 MINUTES","AFTER STANDING FOR 3 MINUTES",817,817,817],[238,"CDISCPILOT01","701","1111","SUPINE","SUPINE","SUPINE","66","","78","129","98.1","132.0","mmHg","","BEATS/MIN","mmHg","F","LB","","","","","","","ORAL CAVITY","BASELINE","07-SEP-2012","07-SEP-2012","","07-SEP-2012","07-SEP-2012","07-SEP-2012","07-SEP-2012","AFTER LYING DOWN FOR 5 MINUTES","AFTER LYING DOWN FOR 5 MINUTES","AFTER LYING DOWN FOR 5 MINUTES",815,815,815],[239,"CDISCPILOT01","701","1111","STANDING","STANDING","STANDING","78","","85","136","","","mmHg","","BEATS/MIN","mmHg","","","","","","","","","","BASELINE","07-SEP-2012","07-SEP-2012","","07-SEP-2012","07-SEP-2012","","","AFTER STANDING FOR 1 MINUTE","AFTER STANDING FOR 1 MINUTE","AFTER STANDING FOR 1 MINUTE",816,816,816],[240,"CDISCPILOT01","701","1111","STANDING","STANDING","STANDING","71","","85","135","","","mmHg","","BEATS/MIN","mmHg","","","","","","","","","","BASELINE","07-SEP-2012","07-SEP-2012","","07-SEP-2012","07-SEP-2012","","","AFTER STANDING FOR 3 MINUTES","AFTER STANDING FOR 3 MINUTES","AFTER STANDING FOR 3 MINUTES",817,817,817],[241,"CDISCPILOT01","701","1111","SUPINE","SUPINE","SUPINE","60","","85","125","098.8","134.0","mmHg","","BEATS/MIN","mmHg","F","LB","","","","","","","ORAL CAVITY","WEEK 2","17-SEP-2012","17-SEP-2012","","17-SEP-2012","17-SEP-2012","17-SEP-2012","17-SEP-2012","AFTER LYING DOWN FOR 5 MINUTES","AFTER LYING DOWN FOR 5 MINUTES","AFTER LYING DOWN FOR 5 MINUTES",815,815,815],[242,"CDISCPILOT01","701","1111","STANDING","STANDING","STANDING","66","","89","112","","","mmHg","","BEATS/MIN","mmHg","","","","","","","","","","WEEK 2","17-SEP-2012","17-SEP-2012","","17-SEP-2012","17-SEP-2012","","","AFTER STANDING FOR 1 MINUTE","AFTER STANDING FOR 1 MINUTE","AFTER STANDING FOR 1 MINUTE",816,816,816],[243,"CDISCPILOT01","701","1111","STANDING","STANDING","STANDING","60","","84","110","","","mmHg","","BEATS/MIN","mmHg","","","","","","","","","","WEEK 2","17-SEP-2012","17-SEP-2012","","17-SEP-2012","17-SEP-2012","","","AFTER STANDING FOR 3 MINUTES","AFTER STANDING FOR 3 MINUTES","AFTER STANDING FOR 3 MINUTES",817,817,817],[244,"CDISCPILOT01","701","1111","SUPINE","SUPINE","SUPINE","64","","66","138","97.7","","mmHg","","BEATS/MIN","mmHg","F","","","","","","","","ORAL CAVITY","RETRIEVAL","22-FEB-2013","22-FEB-2013","","22-FEB-2013","22-FEB-2013","22-FEB-2013","","AFTER LYING DOWN FOR 5 MINUTES","AFTER LYING DOWN FOR 5 MINUTES","AFTER LYING DOWN FOR 5 MINUTES",815,815,815],[245,"CDISCPILOT01","701","1111","STANDING","STANDING","STANDING","72","","79","130","","","mmHg","","BEATS/MIN","mmHg","","","","","","","","","","RETRIEVAL","22-FEB-2013","22-FEB-2013","","22-FEB-2013","22-FEB-2013","","","AFTER STANDING FOR 1 MINUTE","AFTER STANDING FOR 1 MINUTE","AFTER STANDING FOR 1 MINUTE",816,816,816],[246,"CDISCPILOT01","701","1111","STANDING","STANDING","STANDING","64","","74","130","","","mmHg","","BEATS/MIN","mmHg","","","","","","","","","","RETRIEVAL","22-FEB-2013","22-FEB-2013","","22-FEB-2013","22-FEB-2013","","","AFTER STANDING FOR 3 MINUTES","AFTER STANDING FOR 3 MINUTES","AFTER STANDING FOR 3 MINUTES",817,817,817],[247,"CDISCPILOT01","701","1115","SUPINE","SUPINE","SUPINE","71","71.5","51","137","97.4","173.5","mmHg","IN","BEATS/MIN","mmHg","F","LB","","","","","","","ORAL CAVITY","SCREENING 1","23-NOV-2012","23-NOV-2012","23-NOV-2012","23-NOV-2012","23-NOV-2012","23-NOV-2012","23-NOV-2012","AFTER LYING DOWN FOR 5 MINUTES","AFTER LYING DOWN FOR 5 MINUTES","AFTER LYING DOWN FOR 5 MINUTES",815,815,815],[248,"CDISCPILOT01","701","1115","STANDING","STANDING","STANDING","68","","63","130","","","mmHg","","BEATS/MIN","mmHg","","","","","","","","","","SCREENING 1","23-NOV-2012","23-NOV-2012","","23-NOV-2012","23-NOV-2012","","","AFTER STANDING FOR 1 MINUTE","AFTER STANDING FOR 1 MINUTE","AFTER STANDING FOR 1 MINUTE",816,816,816],[249,"CDISCPILOT01","701","1115","STANDING","STANDING","STANDING","69","","61","131","","","mmHg","","BEATS/MIN","mmHg","","","","","","","","","","SCREENING 1","23-NOV-2012","23-NOV-2012","","23-NOV-2012","23-NOV-2012","","","AFTER STANDING FOR 3 MINUTES","AFTER STANDING FOR 3 MINUTES","AFTER STANDING FOR 3 MINUTES",817,817,817],[250,"CDISCPILOT01","701","1115","SUPINE","SUPINE","SUPINE","71","","50","137","97.2","","mmHg","","BEATS/MIN","mmHg","F","","","","","","","","ORAL CAVITY","SCREENING 2","28-NOV-2012","28-NOV-2012","","28-NOV-2012","28-NOV-2012","28-NOV-2012","","AFTER LYING DOWN FOR 5 MINUTES","AFTER LYING DOWN FOR 5 MINUTES","AFTER LYING DOWN FOR 5 MINUTES",815,815,815],[251,"CDISCPILOT01","701","1115","STANDING","STANDING","STANDING","65","","58","130","","","mmHg","","BEATS/MIN","mmHg","","","","","","","","","","SCREENING 2","28-NOV-2012","28-NOV-2012","","28-NOV-2012","28-NOV-2012","","","AFTER STANDING FOR 1 MINUTE","AFTER STANDING FOR 1 MINUTE","AFTER STANDING FOR 1 MINUTE",816,816,816],[252,"CDISCPILOT01","701","1115","STANDING","STANDING","STANDING","68","","59","115","","","mmHg","","BEATS/MIN","mmHg","","","","","","","","","","SCREENING 2","28-NOV-2012","28-NOV-2012","","28-NOV-2012","28-NOV-2012","","","AFTER STANDING FOR 3 MINUTES","AFTER STANDING FOR 3 MINUTES","AFTER STANDING FOR 3 MINUTES",817,817,817],[253,"CDISCPILOT01","701","1115","SUPINE","SUPINE","SUPINE","83","","50","130","98.0","174.0","mmHg","","BEATS/MIN","mmHg","F","LB","","","","","","","ORAL CAVITY","BASELINE","30-NOV-2012","30-NOV-2012","","30-NOV-2012","30-NOV-2012","30-NOV-2012","30-NOV-2012","AFTER LYING DOWN FOR 5 MINUTES","AFTER LYING DOWN FOR 5 MINUTES","AFTER LYING DOWN FOR 5 MINUTES",815,815,815],[254,"CDISCPILOT01","701","1115","STANDING","STANDING","STANDING","67","","62","106","","","mmHg","","BEATS/MIN","mmHg","","","","","","","","","","BASELINE","30-NOV-2012","30-NOV-2012","","30-NOV-2012","30-NOV-2012","","","AFTER STANDING FOR 1 MINUTE","AFTER STANDING FOR 1 MINUTE","AFTER STANDING FOR 1 MINUTE",816,816,816],[255,"CDISCPILOT01","701","1115","STANDING","STANDING","STANDING","69","","60","110","","","mmHg","","BEATS/MIN","mmHg","","","","","","","","","","BASELINE","30-NOV-2012","30-NOV-2012","","30-NOV-2012","30-NOV-2012","","","AFTER STANDING FOR 3 MINUTES","AFTER STANDING FOR 3 MINUTES","AFTER STANDING FOR 3 MINUTES",817,817,817],[256,"CDISCPILOT01","701","1115","SUPINE","SUPINE","SUPINE","78","","52","144","97.4","","mmHg","","BEATS/MIN","mmHg","F","","","","","","","","ORAL CAVITY","AMBUL ECG PLACEMENT","12-DEC-2012","12-DEC-2012","","12-DEC-2012","12-DEC-2012","12-DEC-2012","","AFTER LYING DOWN FOR 5 MINUTES","AFTER LYING DOWN FOR 5 MINUTES","AFTER LYING DOWN FOR 5 MINUTES",815,815,815],[257,"CDISCPILOT01","701","1115","STANDING","STANDING","STANDING","70","","64","120","","","mmHg","","BEATS/MIN","mmHg","","","","","","","","","","AMBUL ECG PLACEMENT","12-DEC-2012","12-DEC-2012","","12-DEC-2012","12-DEC-2012","","","AFTER STANDING FOR 1 MINUTE","AFTER STANDING FOR 1 MINUTE","AFTER STANDING FOR 1 MINUTE",816,816,816],[258,"CDISCPILOT01","701","1115","STANDING","STANDING","STANDING","72","","65","116","","","mmHg","","BEATS/MIN","mmHg","","","","","","","","","","AMBUL ECG PLACEMENT","12-DEC-2012","12-DEC-2012","","12-DEC-2012","12-DEC-2012","","","AFTER STANDING FOR 3 MINUTES","AFTER STANDING FOR 3 MINUTES","AFTER STANDING FOR 3 MINUTES",817,817,817],[259,"CDISCPILOT01","701","1115","SUPINE","SUPINE","SUPINE","79","","53","122","98.0","174.0","mmHg","","BEATS/MIN","mmHg","F","LB","","","","","","","ORAL CAVITY","WEEK 2","13-DEC-2012","13-DEC-2012","","13-DEC-2012","13-DEC-2012","13-DEC-2012","13-DEC-2012","AFTER LYING DOWN FOR 5 MINUTES","AFTER LYING DOWN FOR 5 MINUTES","AFTER LYING DOWN FOR 5 MINUTES",815,815,815],[260,"CDISCPILOT01","701","1115","STANDING","STANDING","STANDING","68","","70","119","","","mmHg","","BEATS/MIN","mmHg","","","","","","","","","","WEEK 2","13-DEC-2012","13-DEC-2012","","13-DEC-2012","13-DEC-2012","","","AFTER STANDING FOR 1 MINUTE","AFTER STANDING FOR 1 MINUTE","AFTER STANDING FOR 1 MINUTE",816,816,816],[261,"CDISCPILOT01","701","1115","STANDING","STANDING","STANDING","69","","65","100","","","mmHg","","BEATS/MIN","mmHg","","","","","","","","","","WEEK 2","13-DEC-2012","13-DEC-2012","","13-DEC-2012","13-DEC-2012","","","AFTER STANDING FOR 3 MINUTES","AFTER STANDING FOR 3 MINUTES","AFTER STANDING FOR 3 MINUTES",817,817,817],[262,"CDISCPILOT01","701","1115","SUPINE","SUPINE","SUPINE","68","","51","115","97.7","173.0","mmHg","","BEATS/MIN","mmHg","F","LB","","","","","","","ORAL CAVITY","WEEK 4","26-DEC-2012","26-DEC-2012","","26-DEC-2012","26-DEC-2012","26-DEC-2012","26-DEC-2012","AFTER LYING DOWN FOR 5 MINUTES","AFTER LYING DOWN FOR 5 MINUTES","AFTER LYING DOWN FOR 5 MINUTES",815,815,815],[263,"CDISCPILOT01","701","1115","STANDING","STANDING","STANDING","53","","57","98","","","mmHg","","BEATS/MIN","mmHg","","","","","","","","","","WEEK 4","26-DEC-2012","26-DEC-2012","","26-DEC-2012","26-DEC-2012","","","AFTER STANDING FOR 1 MINUTE","AFTER STANDING FOR 1 MINUTE","AFTER STANDING FOR 1 MINUTE",816,816,816],[264,"CDISCPILOT01","701","1115","STANDING","STANDING","STANDING","56","","64","95","","","mmHg","","BEATS/MIN","mmHg","","","","","","","","","","WEEK 4","26-DEC-2012","26-DEC-2012","","26-DEC-2012","26-DEC-2012","","","AFTER STANDING FOR 3 MINUTES","AFTER STANDING FOR 3 MINUTES","AFTER STANDING FOR 3 MINUTES",817,817,817],[265,"CDISCPILOT01","701","1115","SUPINE","SUPINE","SUPINE","69","","50","122","97.3","","mmHg","","BEATS/MIN","mmHg","F","","","","","","","","ORAL CAVITY","AMBUL ECG REMOVAL","28-DEC-2012","28-DEC-2012","","28-DEC-2012","28-DEC-2012","28-DEC-2012","","AFTER LYING DOWN FOR 5 MINUTES","AFTER LYING DOWN FOR 5 MINUTES","AFTER LYING DOWN FOR 5 MINUTES",815,815,815],[266,"CDISCPILOT01","701","1115","STANDING","STANDING","STANDING","61","","63","96","","","mmHg","","BEATS/MIN","mmHg","","","","","","","","","","AMBUL ECG REMOVAL","28-DEC-2012","28-DEC-2012","","28-DEC-2012","28-DEC-2012","","","AFTER STANDING FOR 1 MINUTE","AFTER STANDING FOR 1 MINUTE","AFTER STANDING FOR 1 MINUTE",816,816,816],[267,"CDISCPILOT01","701","1115","STANDING","STANDING","STANDING","50","","60","99","","","mmHg","","BEATS/MIN","mmHg","","","","","","","","","","AMBUL ECG REMOVAL","28-DEC-2012","28-DEC-2012","","28-DEC-2012","28-DEC-2012","","","AFTER STANDING FOR 3 MINUTES","AFTER STANDING FOR 3 MINUTES","AFTER STANDING FOR 3 MINUTES",817,817,817],[268,"CDISCPILOT01","701","1115","SUPINE","SUPINE","SUPINE","77","","52","131","97.6","173.0","mmHg","","BEATS/MIN","mmHg","F","LB","","","","","","","ORAL CAVITY","WEEK 6","10-JAN-2013","10-JAN-2013","","10-JAN-2013","10-JAN-2013","10-JAN-2013","10-JAN-2013","AFTER LYING DOWN FOR 5 MINUTES","AFTER LYING DOWN FOR 5 MINUTES","AFTER LYING DOWN FOR 5 MINUTES",815,815,815],[269,"CDISCPILOT01","701","1115","STANDING","STANDING","STANDING","71","","62","107","","","mmHg","","BEATS/MIN","mmHg","","","","","","","","","","WEEK 6","10-JAN-2013","10-JAN-2013","","10-JAN-2013","10-JAN-2013","","","AFTER STANDING FOR 1 MINUTE","AFTER STANDING FOR 1 MINUTE","AFTER STANDING FOR 1 MINUTE",816,816,816],[270,"CDISCPILOT01","701","1115","STANDING","STANDING","STANDING","69","","62","104","","","mmHg","","BEATS/MIN","mmHg","","","","","","","","","","WEEK 6","10-JAN-2013","10-JAN-2013","","10-JAN-2013","10-JAN-2013","","","AFTER STANDING FOR 3 MINUTES","AFTER STANDING FOR 3 MINUTES","AFTER STANDING FOR 3 MINUTES",817,817,817],[271,"CDISCPILOT01","701","1115","SUPINE","SUPINE","SUPINE","76","","50","123","97.6","173.0","mmHg","","BEATS/MIN","mmHg","F","LB","","","","","","","ORAL CAVITY","WEEK 8","23-JAN-2013","23-JAN-2013","","23-JAN-2013","23-JAN-2013","23-JAN-2013","23-JAN-2013","AFTER LYING DOWN FOR 5 MINUTES","AFTER LYING DOWN FOR 5 MINUTES","AFTER LYING DOWN FOR 5 MINUTES",815,815,815],[272,"CDISCPILOT01","701","1115","STANDING","STANDING","STANDING","52","","52","113","","","mmHg","","BEATS/MIN","mmHg","","","","","","","","","","WEEK 8","23-JAN-2013","23-JAN-2013","","23-JAN-2013","23-JAN-2013","","","AFTER STANDING FOR 1 MINUTE","AFTER STANDING FOR 1 MINUTE","AFTER STANDING FOR 1 MINUTE",816,816,816],[273,"CDISCPILOT01","701","1115","STANDING","STANDING","STANDING","60","","54","98","","","mmHg","","BEATS/MIN","mmHg","","","","","","","","","","WEEK 8","23-JAN-2013","23-JAN-2013","","23-JAN-2013","23-JAN-2013","","","AFTER STANDING FOR 3 MINUTES","AFTER STANDING FOR 3 MINUTES","AFTER STANDING FOR 3 MINUTES",817,817,817],[274,"CDISCPILOT01","701","1115","SUPINE","SUPINE","SUPINE","68","","79","99","97.4","","mmHg","","BEATS/MIN","mmHg","F","","","","","","","","ORAL CAVITY","RETRIEVAL","20-MAY-2013","20-MAY-2013","","20-MAY-2013","20-MAY-2013","20-MAY-2013","","AFTER LYING DOWN FOR 5 MINUTES","AFTER LYING DOWN FOR 5 MINUTES","AFTER LYING DOWN FOR 5 MINUTES",815,815,815],[275,"CDISCPILOT01","701","1115","STANDING","STANDING","STANDING","72","","98","99","","","mmHg","","BEATS/MIN","mmHg","","","","","","","","","","RETRIEVAL","20-MAY-2013","20-MAY-2013","","20-MAY-2013","20-MAY-2013","","","AFTER STANDING FOR 1 MINUTE","AFTER STANDING FOR 1 MINUTE","AFTER STANDING FOR 1 MINUTE",816,816,816],[276,"CDISCPILOT01","701","1115","STANDING","STANDING","STANDING","68","","94","99","","","mmHg","","BEATS/MIN","mmHg","","","","","","","","","","RETRIEVAL","20-MAY-2013","20-MAY-2013","","20-MAY-2013","20-MAY-2013","","","AFTER STANDING FOR 3 MINUTES","AFTER STANDING FOR 3 MINUTES","AFTER STANDING FOR 3 MINUTES",817,817,817],[277,"CDISCPILOT01","701","1118","SUPINE","SUPINE","SUPINE","71","71.0","65","122","98.4","158.0","mmHg","IN","BEATS/MIN","mmHg","F","LB","","","","","","","ORAL CAVITY","SCREENING 1","27-FEB-2014","27-FEB-2014","27-FEB-2014","27-FEB-2014","27-FEB-2014","27-FEB-2014","27-FEB-2014","AFTER LYING DOWN FOR 5 MINUTES","AFTER LYING DOWN FOR 5 MINUTES","AFTER LYING DOWN FOR 5 MINUTES",815,815,815],[278,"CDISCPILOT01","701","1118","STANDING","STANDING","STANDING","59","","76","106","","","mmHg","","BEATS/MIN","mmHg","","","","","","","","","","SCREENING 1","27-FEB-2014","27-FEB-2014","","27-FEB-2014","27-FEB-2014","","","AFTER STANDING FOR 1 MINUTE","AFTER STANDING FOR 1 MINUTE","AFTER STANDING FOR 1 MINUTE",816,816,816],[279,"CDISCPILOT01","701","1118","STANDING","STANDING","STANDING","64","","76","107","","","mmHg","","BEATS/MIN","mmHg","","","","","","","","","","SCREENING 1","27-FEB-2014","27-FEB-2014","","27-FEB-2014","27-FEB-2014","","","AFTER STANDING FOR 3 MINUTES","AFTER STANDING FOR 3 MINUTES","AFTER STANDING FOR 3 MINUTES",817,817,817],[280,"CDISCPILOT01","701","1118","SUPINE","SUPINE","SUPINE","84","","60","138","97.5","","mmHg","","BEATS/MIN","mmHg","F","","","","","","","","ORAL CAVITY","SCREENING 2","10-MAR-2014","10-MAR-2014","","10-MAR-2014","10-MAR-2014","10-MAR-2014","","AFTER LYING DOWN FOR 5 MINUTES","AFTER LYING DOWN FOR 5 MINUTES","AFTER LYING DOWN FOR 5 MINUTES",815,815,815],[281,"CDISCPILOT01","701","1118","STANDING","STANDING","STANDING","75","","68","137","","","mmHg","","BEATS/MIN","mmHg","","","","","","","","","","SCREENING 2","10-MAR-2014","10-MAR-2014","","10-MAR-2014","10-MAR-2014","","","AFTER STANDING FOR 1 MINUTE","AFTER STANDING FOR 1 MINUTE","AFTER STANDING FOR 1 MINUTE",816,816,816],[282,"CDISCPILOT01","701","1118","STANDING","STANDING","STANDING","84","","66","138","","","mmHg","","BEATS/MIN","mmHg","","","","","","","","","","SCREENING 2","10-MAR-2014","10-MAR-2014","","10-MAR-2014","10-MAR-2014","","","AFTER STANDING FOR 3 MINUTES","AFTER STANDING FOR 3 MINUTES","AFTER STANDING FOR 3 MINUTES",817,817,817],[283,"CDISCPILOT01","701","1118","SUPINE","SUPINE","SUPINE","84","","62","137","97.5","157.0","mmHg","","BEATS/MIN","mmHg","F","LB","","","","","","","ORAL CAVITY","BASELINE","12-MAR-2014","12-MAR-2014","","12-MAR-2014","12-MAR-2014","12-MAR-2014","12-MAR-2014","AFTER LYING DOWN FOR 5 MINUTES","AFTER LYING DOWN FOR 5 MINUTES","AFTER LYING DOWN FOR 5 MINUTES",815,815,815],[284,"CDISCPILOT01","701","1118","STANDING","STANDING","STANDING","79","","70","129","","","mmHg","","BEATS/MIN","mmHg","","","","","","","","","","BASELINE","12-MAR-2014","12-MAR-2014","","12-MAR-2014","12-MAR-2014","","","AFTER STANDING FOR 1 MINUTE","AFTER STANDING FOR 1 MINUTE","AFTER STANDING FOR 1 MINUTE",816,816,816],[285,"CDISCPILOT01","701","1118","STANDING","STANDING","STANDING","84","","70","123","","","mmHg","","BEATS/MIN","mmHg","","","","","","","","","","BASELINE","12-MAR-2014","12-MAR-2014","","12-MAR-2014","12-MAR-2014","","","AFTER STANDING FOR 3 MINUTES","AFTER STANDING FOR 3 MINUTES","AFTER STANDING FOR 3 MINUTES",817,817,817],[286,"CDISCPILOT01","701","1118","SUPINE","SUPINE","SUPINE","76","","59","131","97.6","","mmHg","","BEATS/MIN","mmHg","F","","","","","","","","ORAL CAVITY","AMBUL ECG PLACEMENT","25-MAR-2014","25-MAR-2014","","25-MAR-2014","25-MAR-2014","25-MAR-2014","","AFTER LYING DOWN FOR 5 MINUTES","AFTER LYING DOWN FOR 5 MINUTES","AFTER LYING DOWN FOR 5 MINUTES",815,815,815],[287,"CDISCPILOT01","701","1118","STANDING","STANDING","STANDING","79","","72","126","","","mmHg","","BEATS/MIN","mmHg","","","","","","","","","","AMBUL ECG PLACEMENT","25-MAR-2014","25-MAR-2014","","25-MAR-2014","25-MAR-2014","","","AFTER STANDING FOR 1 MINUTE","AFTER STANDING FOR 1 MINUTE","AFTER STANDING FOR 1 MINUTE",816,816,816],[288,"CDISCPILOT01","701","1118","STANDING","STANDING","STANDING","85","","68","138","","","mmHg","","BEATS/MIN","mmHg","","","","","","","","","","AMBUL ECG PLACEMENT","25-MAR-2014","25-MAR-2014","","25-MAR-2014","25-MAR-2014","","","AFTER STANDING FOR 3 MINUTES","AFTER STANDING FOR 3 MINUTES","AFTER STANDING FOR 3 MINUTES",817,817,817],[289,"CDISCPILOT01","701","1118","SUPINE","SUPINE","SUPINE","82","","62","129","98.1","157.0","mmHg","","BEATS/MIN","mmHg","F","LB","","","","","","","ORAL CAVITY","WEEK 2","26-MAR-2014","26-MAR-2014","","26-MAR-2014","26-MAR-2014","26-MAR-2014","26-MAR-2014","AFTER LYING DOWN FOR 5 MINUTES","AFTER LYING DOWN FOR 5 MINUTES","AFTER LYING DOWN FOR 5 MINUTES",815,815,815],[290,"CDISCPILOT01","701","1118","STANDING","STANDING","STANDING","69","","73","127","","","mmHg","","BEATS/MIN","mmHg","","","","","","","","","","WEEK 2","26-MAR-2014","26-MAR-2014","","26-MAR-2014","26-MAR-2014","","","AFTER STANDING FOR 1 MINUTE","AFTER STANDING FOR 1 MINUTE","AFTER STANDING FOR 1 MINUTE",816,816,816],[291,"CDISCPILOT01","701","1118","STANDING","STANDING","STANDING","73","","68","131","","","mmHg","","BEATS/MIN","mmHg","","","","","","","","","","WEEK 2","26-MAR-2014","26-MAR-2014","","26-MAR-2014","26-MAR-2014","","","AFTER STANDING FOR 3 MINUTES","AFTER STANDING FOR 3 MINUTES","AFTER STANDING FOR 3 MINUTES",817,817,817],[292,"CDISCPILOT01","701","1118","SUPINE","SUPINE","SUPINE","75","","64","130","98.3","157.0","mmHg","","BEATS/MIN","mmHg","F","LB","","","","","","","ORAL CAVITY","WEEK 4","09-APR-2014","09-APR-2014","","09-APR-2014","09-APR-2014","09-APR-2014","09-APR-2014","AFTER LYING DOWN FOR 5 MINUTES","AFTER LYING DOWN FOR 5 MINUTES","AFTER LYING DOWN FOR 5 MINUTES",815,815,815],[293,"CDISCPILOT01","701","1118","STANDING","STANDING","STANDING","68","","72","114","","","mmHg","","BEATS/MIN","mmHg","","","","","","","","","","WEEK 4","09-APR-2014","09-APR-2014","","09-APR-2014","09-APR-2014","","","AFTER STANDING FOR 1 MINUTE","AFTER STANDING FOR 1 MINUTE","AFTER STANDING FOR 1 MINUTE",816,816,816],[294,"CDISCPILOT01","701","1118","STANDING","STANDING","STANDING","80","","81","130","","","mmHg","","BEATS/MIN","mmHg","","","","","","","","","","WEEK 4","09-APR-2014","09-APR-2014","","09-APR-2014","09-APR-2014","","","AFTER STANDING FOR 3 MINUTES","AFTER STANDING FOR 3 MINUTES","AFTER STANDING FOR 3 MINUTES",817,817,817],[295,"CDISCPILOT01","701","1118","SUPINE","SUPINE","SUPINE","75","","67","130","97.9","","mmHg","","BEATS/MIN","mmHg","F","","","","","","","","ORAL CAVITY","AMBUL ECG REMOVAL","11-APR-2014","11-APR-2014","","11-APR-2014","11-APR-2014","11-APR-2014","","AFTER LYING DOWN FOR 5 MINUTES","AFTER LYING DOWN FOR 5 MINUTES","AFTER LYING DOWN FOR 5 MINUTES",815,815,815],[296,"CDISCPILOT01","701","1118","STANDING","STANDING","STANDING","72","","81","114","","","mmHg","","BEATS/MIN","mmHg","","","","","","","","","","AMBUL ECG REMOVAL","11-APR-2014","11-APR-2014","","11-APR-2014","11-APR-2014","","","AFTER STANDING FOR 1 MINUTE","AFTER STANDING FOR 1 MINUTE","AFTER STANDING FOR 1 MINUTE",816,816,816],[297,"CDISCPILOT01","701","1118","STANDING","STANDING","STANDING","79","","84","122","","","mmHg","","BEATS/MIN","mmHg","","","","","","","","","","AMBUL ECG REMOVAL","11-APR-2014","11-APR-2014","","11-APR-2014","11-APR-2014","","","AFTER STANDING FOR 3 MINUTES","AFTER STANDING FOR 3 MINUTES","AFTER STANDING FOR 3 MINUTES",817,817,817],[298,"CDISCPILOT01","701","1118","SUPINE","SUPINE","SUPINE","62","","74","129","98.3","157.0","mmHg","","BEATS/MIN","mmHg","F","LB","","","","","","","ORAL CAVITY","WEEK 6","23-APR-2014","23-APR-2014","","23-APR-2014","23-APR-2014","23-APR-2014","23-APR-2014","AFTER LYING DOWN FOR 5 MINUTES","AFTER LYING DOWN FOR 5 MINUTES","AFTER LYING DOWN FOR 5 MINUTES",815,815,815],[299,"CDISCPILOT01","701","1118","STANDING","STANDING","STANDING","68","","77","122","","","mmHg","","BEATS/MIN","mmHg","","","","","","","","","","WEEK 6","23-APR-2014","23-APR-2014","","23-APR-2014","23-APR-2014","","","AFTER STANDING FOR 1 MINUTE","AFTER STANDING FOR 1 MINUTE","AFTER STANDING FOR 1 MINUTE",816,816,816],[300,"CDISCPILOT01","701","1118","STANDING","STANDING","STANDING","68","","79","122","","","mmHg","","BEATS/MIN","mmHg","","","","","","","","","","WEEK 6","23-APR-2014","23-APR-2014","","23-APR-2014","23-APR-2014","","","AFTER STANDING FOR 3 MINUTES","AFTER STANDING FOR 3 MINUTES","AFTER STANDING FOR 3 MINUTES",817,817,817],[301,"CDISCPILOT01","701","1118","SUPINE","SUPINE","SUPINE","67","","65","126","98.0","160.0","mmHg","","BEATS/MIN","mmHg","F","LB","","","","","","","ORAL CAVITY","WEEK 8","08-MAY-2014","08-MAY-2014","","08-MAY-2014","08-MAY-2014","08-MAY-2014","08-MAY-2014","AFTER LYING DOWN FOR 5 MINUTES","AFTER LYING DOWN FOR 5 MINUTES","AFTER LYING DOWN FOR 5 MINUTES",815,815,815],[302,"CDISCPILOT01","701","1118","STANDING","STANDING","STANDING","72","","83","106","","","mmHg","","BEATS/MIN","mmHg","","","","","","","","","","WEEK 8","08-MAY-2014","08-MAY-2014","","08-MAY-2014","08-MAY-2014","","","AFTER STANDING FOR 1 MINUTE","AFTER STANDING FOR 1 MINUTE","AFTER STANDING FOR 1 MINUTE",816,816,816],[303,"CDISCPILOT01","701","1118","STANDING","STANDING","STANDING","73","","80","131","","","mmHg","","BEATS/MIN","mmHg","","","","","","","","","","WEEK 8","08-MAY-2014","08-MAY-2014","","08-MAY-2014","08-MAY-2014","","","AFTER STANDING FOR 3 MINUTES","AFTER STANDING FOR 3 MINUTES","AFTER STANDING FOR 3 MINUTES",817,817,817],[304,"CDISCPILOT01","701","1118","SUPINE","SUPINE","SUPINE","72","","75","123","98.1","162.0","mmHg","","BEATS/MIN","mmHg","F","LB","","","","","","","ORAL CAVITY","WEEK 12","05-JUN-2014","05-JUN-2014","","05-JUN-2014","05-JUN-2014","05-JUN-2014","05-JUN-2014","AFTER LYING DOWN FOR 5 MINUTES","AFTER LYING DOWN FOR 5 MINUTES","AFTER LYING DOWN FOR 5 MINUTES",815,815,815],[305,"CDISCPILOT01","701","1118","STANDING","STANDING","STANDING","68","","89","130","","","mmHg","","BEATS/MIN","mmHg","","","","","","","","","","WEEK 12","05-JUN-2014","05-JUN-2014","","05-JUN-2014","05-JUN-2014","","","AFTER STANDING FOR 1 MINUTE","AFTER STANDING FOR 1 MINUTE","AFTER STANDING FOR 1 MINUTE",816,816,816],[306,"CDISCPILOT01","701","1118","STANDING","STANDING","STANDING","72","","89","130","","","mmHg","","BEATS/MIN","mmHg","","","","","","","","","","WEEK 12","05-JUN-2014","05-JUN-2014","","05-JUN-2014","05-JUN-2014","","","AFTER STANDING FOR 3 MINUTES","AFTER STANDING FOR 3 MINUTES","AFTER STANDING FOR 3 MINUTES",817,817,817],[307,"CDISCPILOT01","701","1118","SUPINE","SUPINE","SUPINE","72","","70","122","97.2","161.0","mmHg","","BEATS/MIN","mmHg","F","LB","","","","","","","ORAL CAVITY","WEEK 16","02-JUL-2014","02-JUL-2014","","02-JUL-2014","02-JUL-2014","02-JUL-2014","02-JUL-2014","AFTER LYING DOWN FOR 5 MINUTES","AFTER LYING DOWN FOR 5 MINUTES","AFTER LYING DOWN FOR 5 MINUTES",815,815,815],[308,"CDISCPILOT01","701","1118","STANDING","STANDING","STANDING","68","","78","122","","","mmHg","","BEATS/MIN","mmHg","","","","","","","","","","WEEK 16","02-JUL-2014","02-JUL-2014","","02-JUL-2014","02-JUL-2014","","","AFTER STANDING FOR 1 MINUTE","AFTER STANDING FOR 1 MINUTE","AFTER STANDING FOR 1 MINUTE",816,816,816],[309,"CDISCPILOT01","701","1118","STANDING","STANDING","STANDING","68","","78","114","","","mmHg","","BEATS/MIN","mmHg","","","","","","","","","","WEEK 16","02-JUL-2014","02-JUL-2014","","02-JUL-2014","02-JUL-2014","","","AFTER STANDING FOR 3 MINUTES","AFTER STANDING FOR 3 MINUTES","AFTER STANDING FOR 3 MINUTES",817,817,817],[310,"CDISCPILOT01","701","1118","SUPINE","SUPINE","SUPINE","82","","72","136","99.8","158.0","mmHg","","BEATS/MIN","mmHg","F","LB","","","","","","","ORAL CAVITY","WEEK 20","30-JUL-2014","30-JUL-2014","","30-JUL-2014","30-JUL-2014","30-JUL-2014","30-JUL-2014","AFTER LYING DOWN FOR 5 MINUTES","AFTER LYING DOWN FOR 5 MINUTES","AFTER LYING DOWN FOR 5 MINUTES",815,815,815],[311,"CDISCPILOT01","701","1118","STANDING","STANDING","STANDING","85","","87","154","","","mmHg","","BEATS/MIN","mmHg","","","","","","","","","","WEEK 20","30-JUL-2014","30-JUL-2014","","30-JUL-2014","30-JUL-2014","","","AFTER STANDING FOR 1 MINUTE","AFTER STANDING FOR 1 MINUTE","AFTER STANDING FOR 1 MINUTE",816,816,816],[312,"CDISCPILOT01","701","1118","STANDING","STANDING","STANDING","89","","85","135","","","mmHg","","BEATS/MIN","mmHg","","","","","","","","","","WEEK 20","30-JUL-2014","30-JUL-2014","","30-JUL-2014","30-JUL-2014","","","AFTER STANDING FOR 3 MINUTES","AFTER STANDING FOR 3 MINUTES","AFTER STANDING FOR 3 MINUTES",817,817,817],[313,"CDISCPILOT01","701","1118","SUPINE","SUPINE","SUPINE","76","","61","130","98.6","157.0","mmHg","","BEATS/MIN","mmHg","F","LB","","","","","","","ORAL CAVITY","WEEK 24","27-AUG-2014","27-AUG-2014","","27-AUG-2014","27-AUG-2014","27-AUG-2014","27-AUG-2014","AFTER LYING DOWN FOR 5 MINUTES","AFTER LYING DOWN FOR 5 MINUTES","AFTER LYING DOWN FOR 5 MINUTES",815,815,815],[314,"CDISCPILOT01","701","1118","STANDING","STANDING","STANDING","72","","74","107","","","mmHg","","BEATS/MIN","mmHg","","","","","","","","","","WEEK 24","27-AUG-2014","27-AUG-2014","","27-AUG-2014","27-AUG-2014","","","AFTER STANDING FOR 1 MINUTE","AFTER STANDING FOR 1 MINUTE","AFTER STANDING FOR 1 MINUTE",816,816,816],[315,"CDISCPILOT01","701","1118","STANDING","STANDING","STANDING","73","","75","116","","","mmHg","","BEATS/MIN","mmHg","","","","","","","","","","WEEK 24","27-AUG-2014","27-AUG-2014","","27-AUG-2014","27-AUG-2014","","","AFTER STANDING FOR 3 MINUTES","AFTER STANDING FOR 3 MINUTES","AFTER STANDING FOR 3 MINUTES",817,817,817],[316,"CDISCPILOT01","701","1118","SUPINE","SUPINE","SUPINE","74","","65","121","98.2","161.0","mmHg","","BEATS/MIN","mmHg","F","LB","","","","","","","ORAL CAVITY","WEEK 26","09-SEP-2014","09-SEP-2014","","09-SEP-2014","09-SEP-2014","09-SEP-2014","09-SEP-2014","AFTER LYING DOWN FOR 5 MINUTES","AFTER LYING DOWN FOR 5 MINUTES","AFTER LYING DOWN FOR 5 MINUTES",815,815,815],[317,"CDISCPILOT01","701","1118","STANDING","STANDING","STANDING","67","","75","113","","","mmHg","","BEATS/MIN","mmHg","","","","","","","","","","WEEK 26","09-SEP-2014","09-SEP-2014","","09-SEP-2014","09-SEP-2014","","","AFTER STANDING FOR 1 MINUTE","AFTER STANDING FOR 1 MINUTE","AFTER STANDING FOR 1 MINUTE",816,816,816],[318,"CDISCPILOT01","701","1118","STANDING","STANDING","STANDING","72","","75","122","","","mmHg","","BEATS/MIN","mmHg","","","","","","","","","","WEEK 26","09-SEP-2014","09-SEP-2014","","09-SEP-2014","09-SEP-2014","","","AFTER STANDING FOR 3 MINUTES","AFTER STANDING FOR 3 MINUTES","AFTER STANDING FOR 3 MINUTES",817,817,817],[319,"CDISCPILOT01","701","1130","SUPINE","SUPINE","SUPINE","68","66.8","71","130","97.6","175.0","mmHg","IN","BEATS/MIN","mmHg","F","LB","","","","","","","ORAL CAVITY","SCREENING 1","09-FEB-2014","09-FEB-2014","09-FEB-2014","09-FEB-2014","09-FEB-2014","09-FEB-2014","09-FEB-2014","AFTER LYING DOWN FOR 5 MINUTES","AFTER LYING DOWN FOR 5 MINUTES","AFTER LYING DOWN FOR 5 MINUTES",815,815,815],[320,"CDISCPILOT01","701","1130","STANDING","STANDING","STANDING","71","","76","121","","","mmHg","","BEATS/MIN","mmHg","","","","","","","","","","SCREENING 1","09-FEB-2014","09-FEB-2014","","09-FEB-2014","09-FEB-2014","","","AFTER STANDING FOR 1 MINUTE","AFTER STANDING FOR 1 MINUTE","AFTER STANDING FOR 1 MINUTE",816,816,816],[321,"CDISCPILOT01","701","1130","STANDING","STANDING","STANDING","70","","72","130","","","mmHg","","BEATS/MIN","mmHg","","","","","","","","","","SCREENING 1","09-FEB-2014","09-FEB-2014","","09-FEB-2014","09-FEB-2014","","","AFTER STANDING FOR 3 MINUTES","AFTER STANDING FOR 3 MINUTES","AFTER STANDING FOR 3 MINUTES",817,817,817],[322,"CDISCPILOT01","701","1130","SUPINE","SUPINE","SUPINE","71","","67","135","96.3","","mmHg","","BEATS/MIN","mmHg","F","","","","","","","","ORAL CAVITY","SCREENING 2","13-FEB-2014","13-FEB-2014","","13-FEB-2014","13-FEB-2014","13-FEB-2014","","AFTER LYING DOWN FOR 5 MINUTES","AFTER LYING DOWN FOR 5 MINUTES","AFTER LYING DOWN FOR 5 MINUTES",815,815,815],[323,"CDISCPILOT01","701","1130","STANDING","STANDING","STANDING","64","","71","122","","","mmHg","","BEATS/MIN","mmHg","","","","","","","","","","SCREENING 2","13-FEB-2014","13-FEB-2014","","13-FEB-2014","13-FEB-2014","","","AFTER STANDING FOR 1 MINUTE","AFTER STANDING FOR 1 MINUTE","AFTER STANDING FOR 1 MINUTE",816,816,816],[324,"CDISCPILOT01","701","1130","STANDING","STANDING","STANDING","76","","70","131","","","mmHg","","BEATS/MIN","mmHg","","","","","","","","","","SCREENING 2","13-FEB-2014","13-FEB-2014","","13-FEB-2014","13-FEB-2014","","","AFTER STANDING FOR 3 MINUTES","AFTER STANDING FOR 3 MINUTES","AFTER STANDING FOR 3 MINUTES",817,817,817],[325,"CDISCPILOT01","701","1130","SUPINE","SUPINE","SUPINE","74","","70","122","96.8","175.0","mmHg","","BEATS/MIN","mmHg","F","LB","","","","","","","ORAL CAVITY","BASELINE","15-FEB-2014","15-FEB-2014","","15-FEB-2014","15-FEB-2014","15-FEB-2014","15-FEB-2014","AFTER LYING DOWN FOR 5 MINUTES","AFTER LYING DOWN FOR 5 MINUTES","AFTER LYING DOWN FOR 5 MINUTES",815,815,815],[326,"CDISCPILOT01","701","1130","STANDING","STANDING","STANDING","67","","77","122","","","mmHg","","BEATS/MIN","mmHg","","","","","","","","","","BASELINE","15-FEB-2014","15-FEB-2014","","15-FEB-2014","15-FEB-2014","","","AFTER STANDING FOR 1 MINUTE","AFTER STANDING FOR 1 MINUTE","AFTER STANDING FOR 1 MINUTE",816,816,816],[327,"CDISCPILOT01","701","1130","STANDING","STANDING","STANDING","68","","76","130","","","mmHg","","BEATS/MIN","mmHg","","","","","","","","","","BASELINE","15-FEB-2014","15-FEB-2014","","15-FEB-2014","15-FEB-2014","","","AFTER STANDING FOR 3 MINUTES","AFTER STANDING FOR 3 MINUTES","AFTER STANDING FOR 3 MINUTES",817,817,817],[328,"CDISCPILOT01","701","1130","SUPINE","SUPINE","SUPINE","75","","65","145","97.5","","mmHg","","BEATS/MIN","mmHg","F","","","","","","","","ORAL CAVITY","AMBUL ECG PLACEMENT","28-FEB-2014","28-FEB-2014","","28-FEB-2014","28-FEB-2014","28-FEB-2014","","AFTER LYING DOWN FOR 5 MINUTES","AFTER LYING DOWN FOR 5 MINUTES","AFTER LYING DOWN FOR 5 MINUTES",815,815,815],[329,"CDISCPILOT01","701","1130","STANDING","STANDING","STANDING","72","","70","138","","","mmHg","","BEATS/MIN","mmHg","","","","","","","","","","AMBUL ECG PLACEMENT","28-FEB-2014","28-FEB-2014","","28-FEB-2014","28-FEB-2014","","","AFTER STANDING FOR 1 MINUTE","AFTER STANDING FOR 1 MINUTE","AFTER STANDING FOR 1 MINUTE",816,816,816],[330,"CDISCPILOT01","701","1130","STANDING","STANDING","STANDING","73","","68","131","","","mmHg","","BEATS/MIN","mmHg","","","","","","","","","","AMBUL ECG PLACEMENT","28-FEB-2014","28-FEB-2014","","28-FEB-2014","28-FEB-2014","","","AFTER STANDING FOR 3 MINUTES","AFTER STANDING FOR 3 MINUTES","AFTER STANDING FOR 3 MINUTES",817,817,817],[331,"CDISCPILOT01","701","1130","SUPINE","SUPINE","SUPINE","72","","68","123","98.2","175.0","mmHg","","BEATS/MIN","mmHg","F","LB","","","","","","","ORAL CAVITY","WEEK 2","01-MAR-2014","01-MAR-2014","","01-MAR-2014","01-MAR-2014","01-MAR-2014","01-MAR-2014","AFTER LYING DOWN FOR 5 MINUTES","AFTER LYING DOWN FOR 5 MINUTES","AFTER LYING DOWN FOR 5 MINUTES",815,815,815],[332,"CDISCPILOT01","701","1130","STANDING","STANDING","STANDING","69","","76","131","","","mmHg","","BEATS/MIN","mmHg","","","","","","","","","","WEEK 2","01-MAR-2014","01-MAR-2014","","01-MAR-2014","01-MAR-2014","","","AFTER STANDING FOR 1 MINUTE","AFTER STANDING FOR 1 MINUTE","AFTER STANDING FOR 1 MINUTE",816,816,816],[333,"CDISCPILOT01","701","1130","STANDING","STANDING","STANDING","65","","72","123","","","mmHg","","BEATS/MIN","mmHg","","","","","","","","","","WEEK 2","01-MAR-2014","01-MAR-2014","","01-MAR-2014","01-MAR-2014","","","AFTER STANDING FOR 3 MINUTES","AFTER STANDING FOR 3 MINUTES","AFTER STANDING FOR 3 MINUTES",817,817,817],[334,"CDISCPILOT01","701","1130","SUPINE","SUPINE","SUPINE","74","","74","100","98.2","172.0","mmHg","","BEATS/MIN","mmHg","F","LB","","","","","","","ORAL CAVITY","WEEK 4","15-MAR-2014","15-MAR-2014","","15-MAR-2014","15-MAR-2014","15-MAR-2014","15-MAR-2014","AFTER LYING DOWN FOR 5 MINUTES","AFTER LYING DOWN FOR 5 MINUTES","AFTER LYING DOWN FOR 5 MINUTES",815,815,815],[335,"CDISCPILOT01","701","1130","STANDING","STANDING","STANDING","80","","80","123","","","mmHg","","BEATS/MIN","mmHg","","","","","","","","","","WEEK 4","15-MAR-2014","15-MAR-2014","","15-MAR-2014","15-MAR-2014","","","AFTER STANDING FOR 1 MINUTE","AFTER STANDING FOR 1 MINUTE","AFTER STANDING FOR 1 MINUTE",816,816,816],[336,"CDISCPILOT01","701","1130","STANDING","STANDING","STANDING","72","","79","123","","","mmHg","","BEATS/MIN","mmHg","","","","","","","","","","WEEK 4","15-MAR-2014","15-MAR-2014","","15-MAR-2014","15-MAR-2014","","","AFTER STANDING FOR 3 MINUTES","AFTER STANDING FOR 3 MINUTES","AFTER STANDING FOR 3 MINUTES",817,817,817],[337,"CDISCPILOT01","701","1130","SUPINE","SUPINE","SUPINE","68","","69","115","98.0","","mmHg","","BEATS/MIN","mmHg","F","","","","","","","","ORAL CAVITY","AMBUL ECG REMOVAL","17-MAR-2014","17-MAR-2014","","17-MAR-2014","17-MAR-2014","17-MAR-2014","","AFTER LYING DOWN FOR 5 MINUTES","AFTER LYING DOWN FOR 5 MINUTES","AFTER LYING DOWN FOR 5 MINUTES",815,815,815],[338,"CDISCPILOT01","701","1130","STANDING","STANDING","STANDING","68","","78","115","","","mmHg","","BEATS/MIN","mmHg","","","","","","","","","","AMBUL ECG REMOVAL","17-MAR-2014","17-MAR-2014","","17-MAR-2014","17-MAR-2014","","","AFTER STANDING FOR 1 MINUTE","AFTER STANDING FOR 1 MINUTE","AFTER STANDING FOR 1 MINUTE",816,816,816],[339,"CDISCPILOT01","701","1130","STANDING","STANDING","STANDING","75","","82","122","","","mmHg","","BEATS/MIN","mmHg","","","","","","","","","","AMBUL ECG REMOVAL","17-MAR-2014","17-MAR-2014","","17-MAR-2014","17-MAR-2014","","","AFTER STANDING FOR 3 MINUTES","AFTER STANDING FOR 3 MINUTES","AFTER STANDING FOR 3 MINUTES",817,817,817],[340,"CDISCPILOT01","701","1130","SUPINE","SUPINE","SUPINE","64","","60","123","97.8","172.0","mmHg","","BEATS/MIN","mmHg","F","LB","","","","","","","ORAL CAVITY","WEEK 6","29-MAR-2014","29-MAR-2014","","29-MAR-2014","29-MAR-2014","29-MAR-2014","29-MAR-2014","AFTER LYING DOWN FOR 5 MINUTES","AFTER LYING DOWN FOR 5 MINUTES","AFTER LYING DOWN FOR 5 MINUTES",815,815,815],[341,"CDISCPILOT01","701","1130","STANDING","STANDING","STANDING","70","","72","121","","","mmHg","","BEATS/MIN","mmHg","","","","","","","","","","WEEK 6","29-MAR-2014","29-MAR-2014","","29-MAR-2014","29-MAR-2014","","","AFTER STANDING FOR 1 MINUTE","AFTER STANDING FOR 1 MINUTE","AFTER STANDING FOR 1 MINUTE",816,816,816],[342,"CDISCPILOT01","701","1130","STANDING","STANDING","STANDING","71","","72","136","","","mmHg","","BEATS/MIN","mmHg","","","","","","","","","","WEEK 6","29-MAR-2014","29-MAR-2014","","29-MAR-2014","29-MAR-2014","","","AFTER STANDING FOR 3 MINUTES","AFTER STANDING FOR 3 MINUTES","AFTER STANDING FOR 3 MINUTES",817,817,817],[343,"CDISCPILOT01","701","1130","SUPINE","SUPINE","SUPINE","75","","70","145","96.1","176.0","mmHg","","BEATS/MIN","mmHg","F","LB","","","","","","","ORAL CAVITY","WEEK 8","12-APR-2014","12-APR-2014","","12-APR-2014","12-APR-2014","12-APR-2014","12-APR-2014","AFTER LYING DOWN FOR 5 MINUTES","AFTER LYING DOWN FOR 5 MINUTES","AFTER LYING DOWN FOR 5 MINUTES",815,815,815],[344,"CDISCPILOT01","701","1130","STANDING","STANDING","STANDING","68","","76","138","","","mmHg","","BEATS/MIN","mmHg","","","","","","","","","","WEEK 8","12-APR-2014","12-APR-2014","","12-APR-2014","12-APR-2014","","","AFTER STANDING FOR 1 MINUTE","AFTER STANDING FOR 1 MINUTE","AFTER STANDING FOR 1 MINUTE",816,816,816],[345,"CDISCPILOT01","701","1130","STANDING","STANDING","STANDING","76","","75","146","","","mmHg","","BEATS/MIN","mmHg","","","","","","","","","","WEEK 8","12-APR-2014","12-APR-2014","","12-APR-2014","12-APR-2014","","","AFTER STANDING FOR 3 MINUTES","AFTER STANDING FOR 3 MINUTES","AFTER STANDING FOR 3 MINUTES",817,817,817],[346,"CDISCPILOT01","701","1130","SUPINE","SUPINE","SUPINE","67","","68","114","98.2","173.0","mmHg","","BEATS/MIN","mmHg","F","LB","","","","","","","ORAL CAVITY","WEEK 12","16-MAY-2014","16-MAY-2014","","16-MAY-2014","16-MAY-2014","16-MAY-2014","16-MAY-2014","AFTER LYING DOWN FOR 5 MINUTES","AFTER LYING DOWN FOR 5 MINUTES","AFTER LYING DOWN FOR 5 MINUTES",815,815,815],[347,"CDISCPILOT01","701","1130","STANDING","STANDING","STANDING","60","","75","117","","","mmHg","","BEATS/MIN","mmHg","","","","","","","","","","WEEK 12","16-MAY-2014","16-MAY-2014","","16-MAY-2014","16-MAY-2014","","","AFTER STANDING FOR 1 MINUTE","AFTER STANDING FOR 1 MINUTE","AFTER STANDING FOR 1 MINUTE",816,816,816],[348,"CDISCPILOT01","701","1130","STANDING","STANDING","STANDING","72","","74","122","","","mmHg","","BEATS/MIN","mmHg","","","","","","","","","","WEEK 12","16-MAY-2014","16-MAY-2014","","16-MAY-2014","16-MAY-2014","","","AFTER STANDING FOR 3 MINUTES","AFTER STANDING FOR 3 MINUTES","AFTER STANDING FOR 3 MINUTES",817,817,817],[349,"CDISCPILOT01","701","1130","SUPINE","SUPINE","SUPINE","76","","65","123","97.4","173.0","mmHg","","BEATS/MIN","mmHg","F","LB","","","","","","","ORAL CAVITY","WEEK 16","07-JUN-2014","07-JUN-2014","","07-JUN-2014","07-JUN-2014","07-JUN-2014","07-JUN-2014","AFTER LYING DOWN FOR 5 MINUTES","AFTER LYING DOWN FOR 5 MINUTES","AFTER LYING DOWN FOR 5 MINUTES",815,815,815],[350,"CDISCPILOT01","701","1130","STANDING","STANDING","STANDING","73","","72","141","","","mmHg","","BEATS/MIN","mmHg","","","","","","","","","","WEEK 16","07-JUN-2014","07-JUN-2014","","07-JUN-2014","07-JUN-2014","","","AFTER STANDING FOR 1 MINUTE","AFTER STANDING FOR 1 MINUTE","AFTER STANDING FOR 1 MINUTE",816,816,816],[351,"CDISCPILOT01","701","1130","STANDING","STANDING","STANDING","76","","72","155","","","mmHg","","BEATS/MIN","mmHg","","","","","","","","","","WEEK 16","07-JUN-2014","07-JUN-2014","","07-JUN-2014","07-JUN-2014","","","AFTER STANDING FOR 3 MINUTES","AFTER STANDING FOR 3 MINUTES","AFTER STANDING FOR 3 MINUTES",817,817,817],[352,"CDISCPILOT01","701","1130","SUPINE","SUPINE","SUPINE","63","","74","114","97.3","174.0","mmHg","","BEATS/MIN","mmHg","F","LB","","","","","","","ORAL CAVITY","WEEK 20","02-JUL-2014","02-JUL-2014","","02-JUL-2014","02-JUL-2014","02-JUL-2014","02-JUL-2014","AFTER LYING DOWN FOR 5 MINUTES","AFTER LYING DOWN FOR 5 MINUTES","AFTER LYING DOWN FOR 5 MINUTES",815,815,815],[353,"CDISCPILOT01","701","1130","STANDING","STANDING","STANDING","64","","83","107","","","mmHg","","BEATS/MIN","mmHg","","","","","","","","","","WEEK 20","02-JUL-2014","02-JUL-2014","","02-JUL-2014","02-JUL-2014","","","AFTER STANDING FOR 1 MINUTE","AFTER STANDING FOR 1 MINUTE","AFTER STANDING FOR 1 MINUTE",816,816,816],[354,"CDISCPILOT01","701","1130","STANDING","STANDING","STANDING","56","","80","130","","","mmHg","","BEATS/MIN","mmHg","","","","","","","","","","WEEK 20","02-JUL-2014","02-JUL-2014","","02-JUL-2014","02-JUL-2014","","","AFTER STANDING FOR 3 MINUTES","AFTER STANDING FOR 3 MINUTES","AFTER STANDING FOR 3 MINUTES",817,817,817],[355,"CDISCPILOT01","701","1130","SUPINE","SUPINE","SUPINE","76","","60","124","97.2","170.0","mmHg","","BEATS/MIN","mmHg","F","LB","","","","","","","ORAL CAVITY","WEEK 24","02-AUG-2014","02-AUG-2014","","02-AUG-2014","02-AUG-2014","02-AUG-2014","02-AUG-2014","AFTER LYING DOWN FOR 5 MINUTES","AFTER LYING DOWN FOR 5 MINUTES","AFTER LYING DOWN FOR 5 MINUTES",815,815,815],[356,"CDISCPILOT01","701","1130","STANDING","STANDING","STANDING","76","","76","124","","","mmHg","","BEATS/MIN","mmHg","","","","","","","","","","WEEK 24","02-AUG-2014","02-AUG-2014","","02-AUG-2014","02-AUG-2014","","","AFTER STANDING FOR 1 MINUTE","AFTER STANDING FOR 1 MINUTE","AFTER STANDING FOR 1 MINUTE",816,816,816],[357,"CDISCPILOT01","701","1130","STANDING","STANDING","STANDING","80","","74","139","","","mmHg","","BEATS/MIN","mmHg","","","","","","","","","","WEEK 24","02-AUG-2014","02-AUG-2014","","02-AUG-2014","02-AUG-2014","","","AFTER STANDING FOR 3 MINUTES","AFTER STANDING FOR 3 MINUTES","AFTER STANDING FOR 3 MINUTES",817,817,817],[358,"CDISCPILOT01","701","1130","SUPINE","SUPINE","SUPINE","70","","63","140","97.1","171.0","mmHg","","BEATS/MIN","mmHg","F","LB","","","","","","","ORAL CAVITY","WEEK 26","16-AUG-2014","16-AUG-2014","","16-AUG-2014","16-AUG-2014","16-AUG-2014","16-AUG-2014","AFTER LYING DOWN FOR 5 MINUTES","AFTER LYING DOWN FOR 5 MINUTES","AFTER LYING DOWN FOR 5 MINUTES",815,815,815],[359,"CDISCPILOT01","701","1130","STANDING","STANDING","STANDING","91","","76","130","","","mmHg","","BEATS/MIN","mmHg","","","","","","","","","","WEEK 26","16-AUG-2014","16-AUG-2014","","16-AUG-2014","16-AUG-2014","","","AFTER STANDING FOR 1 MINUTE","AFTER STANDING FOR 1 MINUTE","AFTER STANDING FOR 1 MINUTE",816,816,816],[360,"CDISCPILOT01","701","1130","STANDING","STANDING","STANDING","84","","76","155","","","mmHg","","BEATS/MIN","mmHg","","","","","","","","","","WEEK 26","16-AUG-2014","16-AUG-2014","","16-AUG-2014","16-AUG-2014","","","AFTER STANDING FOR 3 MINUTES","AFTER STANDING FOR 3 MINUTES","AFTER STANDING FOR 3 MINUTES",817,817,817],[361,"CDISCPILOT01","701","1133","SUPINE","SUPINE","SUPINE","78","64.0","52","155","97.7","165.0","mmHg","IN","BEATS/MIN","mmHg","F","LB","","","","","","","ORAL CAVITY","SCREENING 1","23-OCT-2012","23-OCT-2012","23-OCT-2012","23-OCT-2012","23-OCT-2012","23-OCT-2012","23-OCT-2012","AFTER LYING DOWN FOR 5 MINUTES","AFTER LYING DOWN FOR 5 MINUTES","AFTER LYING DOWN FOR 5 MINUTES",815,815,815],[362,"CDISCPILOT01","701","1133","STANDING","STANDING","STANDING","80","","64","146","","","mmHg","","BEATS/MIN","mmHg","","","","","","","","","","SCREENING 1","23-OCT-2012","23-OCT-2012","","23-OCT-2012","23-OCT-2012","","","AFTER STANDING FOR 1 MINUTE","AFTER STANDING FOR 1 MINUTE","AFTER STANDING FOR 1 MINUTE",816,816,816],[363,"CDISCPILOT01","701","1133","STANDING","STANDING","STANDING","60","","61","139","","","mmHg","","BEATS/MIN","mmHg","","","","","","","","","","SCREENING 1","23-OCT-2012","23-OCT-2012","","23-OCT-2012","23-OCT-2012","","","AFTER STANDING FOR 3 MINUTES","AFTER STANDING FOR 3 MINUTES","AFTER STANDING FOR 3 MINUTES",817,817,817],[364,"CDISCPILOT01","701","1133","SUPINE","SUPINE","SUPINE","72","","61","150","97.5","","mmHg","","BEATS/MIN","mmHg","F","","","","","","","","ORAL CAVITY","SCREENING 2","26-OCT-2012","26-OCT-2012","","26-OCT-2012","26-OCT-2012","26-OCT-2012","","AFTER LYING DOWN FOR 5 MINUTES","AFTER LYING DOWN FOR 5 MINUTES","AFTER LYING DOWN FOR 5 MINUTES",815,815,815],[365,"CDISCPILOT01","701","1133","STANDING","STANDING","STANDING","65","","54","152","","","mmHg","","BEATS/MIN","mmHg","","","","","","","","","","SCREENING 2","26-OCT-2012","26-OCT-2012","","26-OCT-2012","26-OCT-2012","","","AFTER STANDING FOR 1 MINUTE","AFTER STANDING FOR 1 MINUTE","AFTER STANDING FOR 1 MINUTE",816,816,816],[366,"CDISCPILOT01","701","1133","STANDING","STANDING","STANDING","68","","62","139","","","mmHg","","BEATS/MIN","mmHg","","","","","","","","","","SCREENING 2","26-OCT-2012","26-OCT-2012","","26-OCT-2012","26-OCT-2012","","","AFTER STANDING FOR 3 MINUTES","AFTER STANDING FOR 3 MINUTES","AFTER STANDING FOR 3 MINUTES",817,817,817],[367,"CDISCPILOT01","701","1133","SUPINE","SUPINE","SUPINE","59","","70","160","97.5","164.0","mmHg","","BEATS/MIN","mmHg","F","LB","","","","","","","ORAL CAVITY","BASELINE","28-OCT-2012","28-OCT-2012","","28-OCT-2012","28-OCT-2012","28-OCT-2012","28-OCT-2012","AFTER LYING DOWN FOR 5 MINUTES","AFTER LYING DOWN FOR 5 MINUTES","AFTER LYING DOWN FOR 5 MINUTES",815,815,815],[368,"CDISCPILOT01","701","1133","STANDING","STANDING","STANDING","56","","73","138","","","mmHg","","BEATS/MIN","mmHg","","","","","","","","","","BASELINE","28-OCT-2012","28-OCT-2012","","28-OCT-2012","28-OCT-2012","","","AFTER STANDING FOR 1 MINUTE","AFTER STANDING FOR 1 MINUTE","AFTER STANDING FOR 1 MINUTE",816,816,816],[369,"CDISCPILOT01","701","1133","STANDING","STANDING","STANDING","54","","64","154","","","mmHg","","BEATS/MIN","mmHg","","","","","","","","","","BASELINE","28-OCT-2012","28-OCT-2012","","28-OCT-2012","28-OCT-2012","","","AFTER STANDING FOR 3 MINUTES","AFTER STANDING FOR 3 MINUTES","AFTER STANDING FOR 3 MINUTES",817,817,817],[370,"CDISCPILOT01","701","1133","SUPINE","SUPINE","SUPINE","56","","65","137","98.5","","mmHg","","BEATS/MIN","mmHg","F","","","","","","","","ORAL CAVITY","AMBUL ECG PLACEMENT","11-NOV-2012","11-NOV-2012","","11-NOV-2012","11-NOV-2012","11-NOV-2012","","AFTER LYING DOWN FOR 5 MINUTES","AFTER LYING DOWN FOR 5 MINUTES","AFTER LYING DOWN FOR 5 MINUTES",815,815,815],[371,"CDISCPILOT01","701","1133","STANDING","STANDING","STANDING","62","","74","123","","","mmHg","","BEATS/MIN","mmHg","","","","","","","","","","AMBUL ECG PLACEMENT","11-NOV-2012","11-NOV-2012","","11-NOV-2012","11-NOV-2012","","","AFTER STANDING FOR 1 MINUTE","AFTER STANDING FOR 1 MINUTE","AFTER STANDING FOR 1 MINUTE",816,816,816],[372,"CDISCPILOT01","701","1133","STANDING","STANDING","STANDING","60","","75","124","","","mmHg","","BEATS/MIN","mmHg","","","","","","","","","","AMBUL ECG PLACEMENT","11-NOV-2012","11-NOV-2012","","11-NOV-2012","11-NOV-2012","","","AFTER STANDING FOR 3 MINUTES","AFTER STANDING FOR 3 MINUTES","AFTER STANDING FOR 3 MINUTES",817,817,817],[373,"CDISCPILOT01","701","1133","SUPINE","SUPINE","SUPINE","56","","59","169","97.8","163.0","mmHg","","BEATS/MIN","mmHg","F","LB","","","","","","","ORAL CAVITY","WEEK 2","12-NOV-2012","12-NOV-2012","","12-NOV-2012","12-NOV-2012","12-NOV-2012","12-NOV-2012","AFTER LYING DOWN FOR 5 MINUTES","AFTER LYING DOWN FOR 5 MINUTES","AFTER LYING DOWN FOR 5 MINUTES",815,815,815],[374,"CDISCPILOT01","701","1133","STANDING","STANDING","STANDING","59","","64","137","","","mmHg","","BEATS/MIN","mmHg","","","","","","","","","","WEEK 2","12-NOV-2012","12-NOV-2012","","12-NOV-2012","12-NOV-2012","","","AFTER STANDING FOR 1 MINUTE","AFTER STANDING FOR 1 MINUTE","AFTER STANDING FOR 1 MINUTE",816,816,816],[375,"CDISCPILOT01","701","1133","STANDING","STANDING","STANDING","64","","66","144","","","mmHg","","BEATS/MIN","mmHg","","","","","","","","","","WEEK 2","12-NOV-2012","12-NOV-2012","","12-NOV-2012","12-NOV-2012","","","AFTER STANDING FOR 3 MINUTES","AFTER STANDING FOR 3 MINUTES","AFTER STANDING FOR 3 MINUTES",817,817,817],[376,"CDISCPILOT01","701","1133","SUPINE","SUPINE","SUPINE","69","","64","181","97.4","164.0","mmHg","","BEATS/MIN","mmHg","F","LB","","","","","","","ORAL CAVITY","WEEK 4","26-NOV-2012","26-NOV-2012","","26-NOV-2012","26-NOV-2012","26-NOV-2012","26-NOV-2012","AFTER LYING DOWN FOR 5 MINUTES","AFTER LYING DOWN FOR 5 MINUTES","AFTER LYING DOWN FOR 5 MINUTES",815,815,815],[377,"CDISCPILOT01","701","1133","STANDING","STANDING","STANDING","73","","68","155","","","mmHg","","BEATS/MIN","mmHg","","","","","","","","","","WEEK 4","26-NOV-2012","26-NOV-2012","","26-NOV-2012","26-NOV-2012","","","AFTER STANDING FOR 1 MINUTE","AFTER STANDING FOR 1 MINUTE","AFTER STANDING FOR 1 MINUTE",816,816,816],[378,"CDISCPILOT01","701","1133","STANDING","STANDING","STANDING","58","","61","160","","","mmHg","","BEATS/MIN","mmHg","","","","","","","","","","WEEK 4","26-NOV-2012","26-NOV-2012","","26-NOV-2012","26-NOV-2012","","","AFTER STANDING FOR 3 MINUTES","AFTER STANDING FOR 3 MINUTES","AFTER STANDING FOR 3 MINUTES",817,817,817],[379,"CDISCPILOT01","701","1133","SUPINE","SUPINE","SUPINE","64","","66","154","97.5","","mmHg","","BEATS/MIN","mmHg","F","","","","","","","","ORAL CAVITY","AMBUL ECG REMOVAL","28-NOV-2012","28-NOV-2012","","28-NOV-2012","28-NOV-2012","28-NOV-2012","","AFTER LYING DOWN FOR 5 MINUTES","AFTER LYING DOWN FOR 5 MINUTES","AFTER LYING DOWN FOR 5 MINUTES",815,815,815],[380,"CDISCPILOT01","701","1133","STANDING","STANDING","STANDING","56","","67","138","","","mmHg","","BEATS/MIN","mmHg","","","","","","","","","","AMBUL ECG REMOVAL","28-NOV-2012","28-NOV-2012","","28-NOV-2012","28-NOV-2012","","","AFTER STANDING FOR 1 MINUTE","AFTER STANDING FOR 1 MINUTE","AFTER STANDING FOR 1 MINUTE",816,816,816],[381,"CDISCPILOT01","701","1133","STANDING","STANDING","STANDING","60","","72","146","","","mmHg","","BEATS/MIN","mmHg","","","","","","","","","","AMBUL ECG REMOVAL","28-NOV-2012","28-NOV-2012","","28-NOV-2012","28-NOV-2012","","","AFTER STANDING FOR 3 MINUTES","AFTER STANDING FOR 3 MINUTES","AFTER STANDING FOR 3 MINUTES",817,817,817],[382,"CDISCPILOT01","701","1133","SUPINE","SUPINE","SUPINE","55","","63","161","96.6","165.0","mmHg","","BEATS/MIN","mmHg","F","LB","","","","","","","ORAL CAVITY","WEEK 6","11-DEC-2012","11-DEC-2012","","11-DEC-2012","11-DEC-2012","11-DEC-2012","11-DEC-2012","AFTER LYING DOWN FOR 5 MINUTES","AFTER LYING DOWN FOR 5 MINUTES","AFTER LYING DOWN FOR 5 MINUTES",815,815,815],[383,"CDISCPILOT01","701","1133","STANDING","STANDING","STANDING","55","","61","137","","","mmHg","","BEATS/MIN","mmHg","","","","","","","","","","WEEK 6","11-DEC-2012","11-DEC-2012","","11-DEC-2012","11-DEC-2012","","","AFTER STANDING FOR 1 MINUTE","AFTER STANDING FOR 1 MINUTE","AFTER STANDING FOR 1 MINUTE",816,816,816],[384,"CDISCPILOT01","701","1133","STANDING","STANDING","STANDING","55","","62","137","","","mmHg","","BEATS/MIN","mmHg","","","","","","","","","","WEEK 6","11-DEC-2012","11-DEC-2012","","11-DEC-2012","11-DEC-2012","","","AFTER STANDING FOR 3 MINUTES","AFTER STANDING FOR 3 MINUTES","AFTER STANDING FOR 3 MINUTES",817,817,817],[385,"CDISCPILOT01","701","1133","SUPINE","SUPINE","SUPINE","59","","57","145","97.8","166.0","mmHg","","BEATS/MIN","mmHg","F","LB","","","","","","","ORAL CAVITY","WEEK 8","24-DEC-2012","24-DEC-2012","","24-DEC-2012","24-DEC-2012","24-DEC-2012","24-DEC-2012","AFTER LYING DOWN FOR 5 MINUTES","AFTER LYING DOWN FOR 5 MINUTES","AFTER LYING DOWN FOR 5 MINUTES",815,815,815],[386,"CDISCPILOT01","701","1133","STANDING","STANDING","STANDING","56","","61","154","","","mmHg","","BEATS/MIN","mmHg","","","","","","","","","","WEEK 8","24-DEC-2012","24-DEC-2012","","24-DEC-2012","24-DEC-2012","","","AFTER STANDING FOR 1 MINUTE","AFTER STANDING FOR 1 MINUTE","AFTER STANDING FOR 1 MINUTE",816,816,816],[387,"CDISCPILOT01","701","1133","STANDING","STANDING","STANDING","56","","62","146","","","mmHg","","BEATS/MIN","mmHg","","","","","","","","","","WEEK 8","24-DEC-2012","24-DEC-2012","","24-DEC-2012","24-DEC-2012","","","AFTER STANDING FOR 3 MINUTES","AFTER STANDING FOR 3 MINUTES","AFTER STANDING FOR 3 MINUTES",817,817,817],[388,"CDISCPILOT01","701","1133","SUPINE","SUPINE","SUPINE","56","","79","129","98.4","168.0","mmHg","","BEATS/MIN","mmHg","F","LB","","","","","","","ORAL CAVITY","WEEK 12","22-JAN-2013","22-JAN-2013","","22-JAN-2013","22-JAN-2013","22-JAN-2013","22-JAN-2013","AFTER LYING DOWN FOR 5 MINUTES","AFTER LYING DOWN FOR 5 MINUTES","AFTER LYING DOWN FOR 5 MINUTES",815,815,815],[389,"CDISCPILOT01","701","1133","STANDING","STANDING","STANDING","60","","88","145","","","mmHg","","BEATS/MIN","mmHg","","","","","","","","","","WEEK 12","22-JAN-2013","22-JAN-2013","","22-JAN-2013","22-JAN-2013","","","AFTER STANDING FOR 1 MINUTE","AFTER STANDING FOR 1 MINUTE","AFTER STANDING FOR 1 MINUTE",816,816,816],[390,"CDISCPILOT01","701","1133","STANDING","STANDING","STANDING","60","","82","146","","","mmHg","","BEATS/MIN","mmHg","","","","","","","","","","WEEK 12","22-JAN-2013","22-JAN-2013","","22-JAN-2013","22-JAN-2013","","","AFTER STANDING FOR 3 MINUTES","AFTER STANDING FOR 3 MINUTES","AFTER STANDING FOR 3 MINUTES",817,817,817],[391,"CDISCPILOT01","701","1133","SUPINE","SUPINE","SUPINE","56","","70","169","98.3","166.0","mmHg","","BEATS/MIN","mmHg","F","LB","","","","","","","ORAL CAVITY","WEEK 16","18-FEB-2013","18-FEB-2013","","18-FEB-2013","18-FEB-2013","18-FEB-2013","18-FEB-2013","AFTER LYING DOWN FOR 5 MINUTES","AFTER LYING DOWN FOR 5 MINUTES","AFTER LYING DOWN FOR 5 MINUTES",815,815,815],[392,"CDISCPILOT01","701","1133","STANDING","STANDING","STANDING","60","","72","153","","","mmHg","","BEATS/MIN","mmHg","","","","","","","","","","WEEK 16","18-FEB-2013","18-FEB-2013","","18-FEB-2013","18-FEB-2013","","","AFTER STANDING FOR 1 MINUTE","AFTER STANDING FOR 1 MINUTE","AFTER STANDING FOR 1 MINUTE",816,816,816],[393,"CDISCPILOT01","701","1133","STANDING","STANDING","STANDING","79","","74","144","","","mmHg","","BEATS/MIN","mmHg","","","","","","","","","","WEEK 16","18-FEB-2013","18-FEB-2013","","18-FEB-2013","18-FEB-2013","","","AFTER STANDING FOR 3 MINUTES","AFTER STANDING FOR 3 MINUTES","AFTER STANDING FOR 3 MINUTES",817,817,817],[394,"CDISCPILOT01","701","1133","SUPINE","SUPINE","SUPINE","77","","77","159","97.6","164","mmHg","","BEATS/MIN","mmHg","F","LB","","","","","","","ORAL CAVITY","WEEK 20","18-MAR-2013","18-MAR-2013","","18-MAR-2013","18-MAR-2013","18-MAR-2013","18-MAR-2013","AFTER LYING DOWN FOR 5 MINUTES","AFTER LYING DOWN FOR 5 MINUTES","AFTER LYING DOWN FOR 5 MINUTES",815,815,815],[395,"CDISCPILOT01","701","1133","STANDING","STANDING","STANDING","58","","81","158","","","mmHg","","BEATS/MIN","mmHg","","","","","","","","","","WEEK 20","18-MAR-2013","18-MAR-2013","","18-MAR-2013","18-MAR-2013","","","AFTER STANDING FOR 1 MINUTE","AFTER STANDING FOR 1 MINUTE","AFTER STANDING FOR 1 MINUTE",816,816,816],[396,"CDISCPILOT01","701","1133","STANDING","STANDING","STANDING","64","","80","130","","","mmHg","","BEATS/MIN","mmHg","","","","","","","","","","WEEK 20","18-MAR-2013","18-MAR-2013","","18-MAR-2013","18-MAR-2013","","","AFTER STANDING FOR 3 MINUTES","AFTER STANDING FOR 3 MINUTES","AFTER STANDING FOR 3 MINUTES",817,817,817],[397,"CDISCPILOT01","701","1133","SUPINE","SUPINE","SUPINE","73","","57","147","098.9","160.0","mmHg","","BEATS/MIN","mmHg","F","LB","","","","","","","ORAL CAVITY","WEEK 24","18-APR-2013","18-APR-2013","","18-APR-2013","18-APR-2013","18-APR-2013","18-APR-2013","AFTER LYING DOWN FOR 5 MINUTES","AFTER LYING DOWN FOR 5 MINUTES","AFTER LYING DOWN FOR 5 MINUTES",815,815,815],[398,"CDISCPILOT01","701","1133","STANDING","STANDING","STANDING","64","","61","137","","","mmHg","","BEATS/MIN","mmHg","","","","","","","","","","WEEK 24","18-APR-2013","18-APR-2013","","18-APR-2013","18-APR-2013","","","AFTER STANDING FOR 1 MINUTE","AFTER STANDING FOR 1 MINUTE","AFTER STANDING FOR 1 MINUTE",816,816,816],[399,"CDISCPILOT01","701","1133","STANDING","STANDING","STANDING","60","","57","138","","","mmHg","","BEATS/MIN","mmHg","","","","","","","","","","WEEK 24","18-APR-2013","18-APR-2013","","18-APR-2013","18-APR-2013","","","AFTER STANDING FOR 3 MINUTES","AFTER STANDING FOR 3 MINUTES","AFTER STANDING FOR 3 MINUTES",817,817,817],[400,"CDISCPILOT01","701","1133","SUPINE","SUPINE","SUPINE","66","","64","137","98.5","161.0","mmHg","","BEATS/MIN","mmHg","F","LB","","","","","","","ORAL CAVITY","WEEK 26","29-APR-2013","29-APR-2013","","29-APR-2013","29-APR-2013","29-APR-2013","29-APR-2013","AFTER LYING DOWN FOR 5 MINUTES","AFTER LYING DOWN FOR 5 MINUTES","AFTER LYING DOWN FOR 5 MINUTES",815,815,815],[401,"CDISCPILOT01","701","1133","STANDING","STANDING","STANDING","60","","72","137","","","mmHg","","BEATS/MIN","mmHg","","","","","","","","","","WEEK 26","29-APR-2013","29-APR-2013","","29-APR-2013","29-APR-2013","","","AFTER STANDING FOR 1 MINUTE","AFTER STANDING FOR 1 MINUTE","AFTER STANDING FOR 1 MINUTE",816,816,816],[402,"CDISCPILOT01","701","1133","STANDING","STANDING","STANDING","60","","72","122","","","mmHg","","BEATS/MIN","mmHg","","","","","","","","","","WEEK 26","29-APR-2013","29-APR-2013","","29-APR-2013","29-APR-2013","","","AFTER STANDING FOR 3 MINUTES","AFTER STANDING FOR 3 MINUTES","AFTER STANDING FOR 3 MINUTES",817,817,817],[403,"CDISCPILOT01","701","1146","SUPINE","SUPINE","SUPINE","48","58.0","65","114","99.2","119.0","mmHg","IN","BEATS/MIN","mmHg","F","LB","","","","","","","ORAL CAVITY","SCREENING 1","07-MAY-2013","07-MAY-2013","07-MAY-2013","07-MAY-2013","07-MAY-2013","07-MAY-2013","07-MAY-2013","AFTER LYING DOWN FOR 5 MINUTES","AFTER LYING DOWN FOR 5 MINUTES","AFTER LYING DOWN FOR 5 MINUTES",815,815,815],[404,"CDISCPILOT01","701","1146","STANDING","STANDING","STANDING","56","","76","122","","","mmHg","","BEATS/MIN","mmHg","","","","","","","","","","SCREENING 1","07-MAY-2013","07-MAY-2013","","07-MAY-2013","07-MAY-2013","","","AFTER STANDING FOR 1 MINUTE","AFTER STANDING FOR 1 MINUTE","AFTER STANDING FOR 1 MINUTE",816,816,816],[405,"CDISCPILOT01","701","1146","STANDING","STANDING","STANDING","59","","79","122","","","mmHg","","BEATS/MIN","mmHg","","","","","","","","","","SCREENING 1","07-MAY-2013","07-MAY-2013","","07-MAY-2013","07-MAY-2013","","","AFTER STANDING FOR 3 MINUTES","AFTER STANDING FOR 3 MINUTES","AFTER STANDING FOR 3 MINUTES",817,817,817],[406,"CDISCPILOT01","701","1146","SUPINE","SUPINE","SUPINE","50","","62","114","97.3","","mmHg","","BEATS/MIN","mmHg","F","","","","","","","","ORAL CAVITY","SCREENING 2","18-MAY-2013","18-MAY-2013","","18-MAY-2013","18-MAY-2013","18-MAY-2013","","AFTER LYING DOWN FOR 5 MINUTES","AFTER LYING DOWN FOR 5 MINUTES","AFTER LYING DOWN FOR 5 MINUTES",815,815,815],[407,"CDISCPILOT01","701","1146","STANDING","STANDING","STANDING","54","","80","107","","","mmHg","","BEATS/MIN","mmHg","","","","","","","","","","SCREENING 2","18-MAY-2013","18-MAY-2013","","18-MAY-2013","18-MAY-2013","","","AFTER STANDING FOR 1 MINUTE","AFTER STANDING FOR 1 MINUTE","AFTER STANDING FOR 1 MINUTE",816,816,816],[408,"CDISCPILOT01","701","1146","STANDING","STANDING","STANDING","58","","74","108","","","mmHg","","BEATS/MIN","mmHg","","","","","","","","","","SCREENING 2","18-MAY-2013","18-MAY-2013","","18-MAY-2013","18-MAY-2013","","","AFTER STANDING FOR 3 MINUTES","AFTER STANDING FOR 3 MINUTES","AFTER STANDING FOR 3 MINUTES",817,817,817],[409,"CDISCPILOT01","701","1146","SUPINE","SUPINE","SUPINE","51","","67","128","97.6","119.0","mmHg","","BEATS/MIN","mmHg","F","LB","","","","","","","ORAL CAVITY","BASELINE","20-MAY-2013","20-MAY-2013","","20-MAY-2013","20-MAY-2013","20-MAY-2013","20-MAY-2013","AFTER LYING DOWN FOR 5 MINUTES","AFTER LYING DOWN FOR 5 MINUTES","AFTER LYING DOWN FOR 5 MINUTES",815,815,815],[410,"CDISCPILOT01","701","1146","STANDING","STANDING","STANDING","57","","72","124","","","mmHg","","BEATS/MIN","mmHg","","","","","","","","","","BASELINE","20-MAY-2013","20-MAY-2013","","20-MAY-2013","20-MAY-2013","","","AFTER STANDING FOR 1 MINUTE","AFTER STANDING FOR 1 MINUTE","AFTER STANDING FOR 1 MINUTE",816,816,816],[411,"CDISCPILOT01","701","1146","STANDING","STANDING","STANDING","51","","68","115","","","mmHg","","BEATS/MIN","mmHg","","","","","","","","","","BASELINE","20-MAY-2013","20-MAY-2013","","20-MAY-2013","20-MAY-2013","","","AFTER STANDING FOR 3 MINUTES","AFTER STANDING FOR 3 MINUTES","AFTER STANDING FOR 3 MINUTES",817,817,817],[412,"CDISCPILOT01","701","1146","SUPINE","SUPINE","SUPINE","51","","65","113","97.8","","mmHg","","BEATS/MIN","mmHg","F","","","","","","","","ORAL CAVITY","AMBUL ECG PLACEMENT","02-JUN-2013","02-JUN-2013","","02-JUN-2013","02-JUN-2013","02-JUN-2013","","AFTER LYING DOWN FOR 5 MINUTES","AFTER LYING DOWN FOR 5 MINUTES","AFTER LYING DOWN FOR 5 MINUTES",815,815,815],[413,"CDISCPILOT01","701","1146","STANDING","STANDING","STANDING","52","","70","136","","","mmHg","","BEATS/MIN","mmHg","","","","","","","","","","AMBUL ECG PLACEMENT","02-JUN-2013","02-JUN-2013","","02-JUN-2013","02-JUN-2013","","","AFTER STANDING FOR 1 MINUTE","AFTER STANDING FOR 1 MINUTE","AFTER STANDING FOR 1 MINUTE",816,816,816],[414,"CDISCPILOT01","701","1146","STANDING","STANDING","STANDING","62","","67","121","","","mmHg","","BEATS/MIN","mmHg","","","","","","","","","","AMBUL ECG PLACEMENT","02-JUN-2013","02-JUN-2013","","02-JUN-2013","02-JUN-2013","","","AFTER STANDING FOR 3 MINUTES","AFTER STANDING FOR 3 MINUTES","AFTER STANDING FOR 3 MINUTES",817,817,817],[415,"CDISCPILOT01","701","1146","SUPINE","SUPINE","SUPINE","57","","62","108","97.9","120.0","mmHg","","BEATS/MIN","mmHg","F","LB","","","","","","","ORAL CAVITY","WEEK 2","03-JUN-2013","03-JUN-2013","","03-JUN-2013","03-JUN-2013","03-JUN-2013","03-JUN-2013","AFTER LYING DOWN FOR 5 MINUTES","AFTER LYING DOWN FOR 5 MINUTES","AFTER LYING DOWN FOR 5 MINUTES",815,815,815],[416,"CDISCPILOT01","701","1146","STANDING","STANDING","STANDING","43","","70","104","","","mmHg","","BEATS/MIN","mmHg","","","","","","","","","","WEEK 2","03-JUN-2013","03-JUN-2013","","03-JUN-2013","03-JUN-2013","","","AFTER STANDING FOR 1 MINUTE","AFTER STANDING FOR 1 MINUTE","AFTER STANDING FOR 1 MINUTE",816,816,816],[417,"CDISCPILOT01","701","1146","STANDING","STANDING","STANDING","58","","69","116","","","mmHg","","BEATS/MIN","mmHg","","","","","","","","","","WEEK 2","03-JUN-2013","03-JUN-2013","","03-JUN-2013","03-JUN-2013","","","AFTER STANDING FOR 3 MINUTES","AFTER STANDING FOR 3 MINUTES","AFTER STANDING FOR 3 MINUTES",817,817,817],[418,"CDISCPILOT01","701","1146","SUPINE","SUPINE","SUPINE","55","","68","121","97.4","120.0","mmHg","","BEATS/MIN","mmHg","F","LB","","","","","","","ORAL CAVITY","WEEK 4","16-JUN-2013","16-JUN-2013","","16-JUN-2013","16-JUN-2013","16-JUN-2013","16-JUN-2013","AFTER LYING DOWN FOR 5 MINUTES","AFTER LYING DOWN FOR 5 MINUTES","AFTER LYING DOWN FOR 5 MINUTES",815,815,815],[419,"CDISCPILOT01","701","1146","STANDING","STANDING","STANDING","59","","73","129","","","mmHg","","BEATS/MIN","mmHg","","","","","","","","","","WEEK 4","16-JUN-2013","16-JUN-2013","","16-JUN-2013","16-JUN-2013","","","AFTER STANDING FOR 1 MINUTE","AFTER STANDING FOR 1 MINUTE","AFTER STANDING FOR 1 MINUTE",816,816,816],[420,"CDISCPILOT01","701","1146","STANDING","STANDING","STANDING","56","","73","122","","","mmHg","","BEATS/MIN","mmHg","","","","","","","","","","WEEK 4","16-JUN-2013","16-JUN-2013","","16-JUN-2013","16-JUN-2013","","","AFTER STANDING FOR 3 MINUTES","AFTER STANDING FOR 3 MINUTES","AFTER STANDING FOR 3 MINUTES",817,817,817],[421,"CDISCPILOT01","701","1146","SUPINE","SUPINE","SUPINE","45","","68","108","98.6","","mmHg","","BEATS/MIN","mmHg","F","","","","","","","","ORAL CAVITY","AMBUL ECG REMOVAL","18-JUN-2013","18-JUN-2013","","18-JUN-2013","18-JUN-2013","18-JUN-2013","","AFTER LYING DOWN FOR 5 MINUTES","AFTER LYING DOWN FOR 5 MINUTES","AFTER LYING DOWN FOR 5 MINUTES",815,815,815],[422,"CDISCPILOT01","701","1146","STANDING","STANDING","STANDING","60","","72","115","","","mmHg","","BEATS/MIN","mmHg","","","","","","","","","","AMBUL ECG REMOVAL","18-JUN-2013","18-JUN-2013","","18-JUN-2013","18-JUN-2013","","","AFTER STANDING FOR 1 MINUTE","AFTER STANDING FOR 1 MINUTE","AFTER STANDING FOR 1 MINUTE",816,816,816],[423,"CDISCPILOT01","701","1146","STANDING","STANDING","STANDING","56","","72","122","","","mmHg","","BEATS/MIN","mmHg","","","","","","","","","","AMBUL ECG REMOVAL","18-JUN-2013","18-JUN-2013","","18-JUN-2013","18-JUN-2013","","","AFTER STANDING FOR 3 MINUTES","AFTER STANDING FOR 3 MINUTES","AFTER STANDING FOR 3 MINUTES",817,817,817],[424,"CDISCPILOT01","701","1146","SUPINE","SUPINE","SUPINE","56","","52","115","98.1","118.5","mmHg","","BEATS/MIN","mmHg","F","LB","","","","","","","ORAL CAVITY","WEEK 6","30-JUN-2013","30-JUN-2013","","30-JUN-2013","30-JUN-2013","30-JUN-2013","30-JUN-2013","AFTER LYING DOWN FOR 5 MINUTES","AFTER LYING DOWN FOR 5 MINUTES","AFTER LYING DOWN FOR 5 MINUTES",815,815,815],[425,"CDISCPILOT01","701","1146","STANDING","STANDING","STANDING","60","","60","107","","","mmHg","","BEATS/MIN","mmHg","","","","","","","","","","WEEK 6","30-JUN-2013","30-JUN-2013","","30-JUN-2013","30-JUN-2013","","","AFTER STANDING FOR 1 MINUTE","AFTER STANDING FOR 1 MINUTE","AFTER STANDING FOR 1 MINUTE",816,816,816],[426,"CDISCPILOT01","701","1146","STANDING","STANDING","STANDING","54","","67","116","","","mmHg","","BEATS/MIN","mmHg","","","","","","","","","","WEEK 6","30-JUN-2013","30-JUN-2013","","30-JUN-2013","30-JUN-2013","","","AFTER STANDING FOR 3 MINUTES","AFTER STANDING FOR 3 MINUTES","AFTER STANDING FOR 3 MINUTES",817,817,817],[427,"CDISCPILOT01","701","1148","SUPINE","SUPINE","SUPINE","69","069.0","50","116","97.5","190.0","mmHg","IN","BEATS/MIN","mmHg","F","LB","","","","","","","ORAL CAVITY","SCREENING 1","14-AUG-2013","14-AUG-2013","14-AUG-2013","14-AUG-2013","14-AUG-2013","14-AUG-2013","14-AUG-2013","AFTER LYING DOWN FOR 5 MINUTES","AFTER LYING DOWN FOR 5 MINUTES","AFTER LYING DOWN FOR 5 MINUTES",815,815,815],[428,"CDISCPILOT01","701","1148","STANDING","STANDING","STANDING","60","","66","115","","","mmHg","","BEATS/MIN","mmHg","","","","","","","","","","SCREENING 1","14-AUG-2013","14-AUG-2013","","14-AUG-2013","14-AUG-2013","","","AFTER STANDING FOR 1 MINUTE","AFTER STANDING FOR 1 MINUTE","AFTER STANDING FOR 1 MINUTE",816,816,816],[429,"CDISCPILOT01","701","1148","STANDING","STANDING","STANDING","68","","69","107","","","mmHg","","BEATS/MIN","mmHg","","","","","","","","","","SCREENING 1","14-AUG-2013","14-AUG-2013","","14-AUG-2013","14-AUG-2013","","","AFTER STANDING FOR 3 MINUTES","AFTER STANDING FOR 3 MINUTES","AFTER STANDING FOR 3 MINUTES",817,817,817],[430,"CDISCPILOT01","701","1148","SUPINE","SUPINE","SUPINE","76","","54","115","97.9","","mmHg","","BEATS/MIN","mmHg","F","","","","","","","","ORAL CAVITY","SCREENING 2","21-AUG-2013","21-AUG-2013","","21-AUG-2013","21-AUG-2013","21-AUG-2013","","AFTER LYING DOWN FOR 5 MINUTES","AFTER LYING DOWN FOR 5 MINUTES","AFTER LYING DOWN FOR 5 MINUTES",815,815,815],[431,"CDISCPILOT01","701","1148","STANDING","STANDING","STANDING","68","","57","106","","","mmHg","","BEATS/MIN","mmHg","","","","","","","","","","SCREENING 2","21-AUG-2013","21-AUG-2013","","21-AUG-2013","21-AUG-2013","","","AFTER STANDING FOR 1 MINUTE","AFTER STANDING FOR 1 MINUTE","AFTER STANDING FOR 1 MINUTE",816,816,816],[432,"CDISCPILOT01","701","1148","STANDING","STANDING","STANDING","69","","67","100","","","mmHg","","BEATS/MIN","mmHg","","","","","","","","","","SCREENING 2","21-AUG-2013","21-AUG-2013","","21-AUG-2013","21-AUG-2013","","","AFTER STANDING FOR 3 MINUTES","AFTER STANDING FOR 3 MINUTES","AFTER STANDING FOR 3 MINUTES",817,817,817],[433,"CDISCPILOT01","701","1148","SUPINE","SUPINE","SUPINE","70","","58","116","97.8","192.0","mmHg","","BEATS/MIN","mmHg","F","LB","","","","","","","ORAL CAVITY","BASELINE","23-AUG-2013","23-AUG-2013","","23-AUG-2013","23-AUG-2013","23-AUG-2013","23-AUG-2013","AFTER LYING DOWN FOR 5 MINUTES","AFTER LYING DOWN FOR 5 MINUTES","AFTER LYING DOWN FOR 5 MINUTES",815,815,815],[434,"CDISCPILOT01","701","1148","STANDING","STANDING","STANDING","58","","73","116","","","mmHg","","BEATS/MIN","mmHg","","","","","","","","","","BASELINE","23-AUG-2013","23-AUG-2013","","23-AUG-2013","23-AUG-2013","","","AFTER STANDING FOR 1 MINUTE","AFTER STANDING FOR 1 MINUTE","AFTER STANDING FOR 1 MINUTE",816,816,816],[435,"CDISCPILOT01","701","1148","STANDING","STANDING","STANDING","76","","70","122","","","mmHg","","BEATS/MIN","mmHg","","","","","","","","","","BASELINE","23-AUG-2013","23-AUG-2013","","23-AUG-2013","23-AUG-2013","","","AFTER STANDING FOR 3 MINUTES","AFTER STANDING FOR 3 MINUTES","AFTER STANDING FOR 3 MINUTES",817,817,817],[436,"CDISCPILOT01","701","1148","SUPINE","SUPINE","SUPINE","80","","75","132","97.7","","mmHg","","BEATS/MIN","mmHg","F","","","","","","","","ORAL CAVITY","AMBUL ECG PLACEMENT","04-SEP-2013","04-SEP-2013","","04-SEP-2013","04-SEP-2013","04-SEP-2013","","AFTER LYING DOWN FOR 5 MINUTES","AFTER LYING DOWN FOR 5 MINUTES","AFTER LYING DOWN FOR 5 MINUTES",815,815,815],[437,"CDISCPILOT01","701","1148","STANDING","STANDING","STANDING","73","","80","108","","","mmHg","","BEATS/MIN","mmHg","","","","","","","","","","AMBUL ECG PLACEMENT","04-SEP-2013","04-SEP-2013","","04-SEP-2013","04-SEP-2013","","","AFTER STANDING FOR 1 MINUTE","AFTER STANDING FOR 1 MINUTE","AFTER STANDING FOR 1 MINUTE",816,816,816],[438,"CDISCPILOT01","701","1148","STANDING","STANDING","STANDING","67","","80","117","","","mmHg","","BEATS/MIN","mmHg","","","","","","","","","","AMBUL ECG PLACEMENT","04-SEP-2013","04-SEP-2013","","04-SEP-2013","04-SEP-2013","","","AFTER STANDING FOR 3 MINUTES","AFTER STANDING FOR 3 MINUTES","AFTER STANDING FOR 3 MINUTES",817,817,817],[439,"CDISCPILOT01","701","1148","SUPINE","SUPINE","SUPINE","69","","74","122","98.5","193.0","mmHg","","BEATS/MIN","mmHg","F","LB","","","","","","","ORAL CAVITY","WEEK 2","05-SEP-2013","05-SEP-2013","","05-SEP-2013","05-SEP-2013","05-SEP-2013","05-SEP-2013","AFTER LYING DOWN FOR 5 MINUTES","AFTER LYING DOWN FOR 5 MINUTES","AFTER LYING DOWN FOR 5 MINUTES",815,815,815],[440,"CDISCPILOT01","701","1148","STANDING","STANDING","STANDING","66","","86","113","","","mmHg","","BEATS/MIN","mmHg","","","","","","","","","","WEEK 2","05-SEP-2013","05-SEP-2013","","05-SEP-2013","05-SEP-2013","","","AFTER STANDING FOR 1 MINUTE","AFTER STANDING FOR 1 MINUTE","AFTER STANDING FOR 1 MINUTE",816,816,816],[441,"CDISCPILOT01","701","1148","STANDING","STANDING","STANDING","73","","81","115","","","mmHg","","BEATS/MIN","mmHg","","","","","","","","","","WEEK 2","05-SEP-2013","05-SEP-2013","","05-SEP-2013","05-SEP-2013","","","AFTER STANDING FOR 3 MINUTES","AFTER STANDING FOR 3 MINUTES","AFTER STANDING FOR 3 MINUTES",817,817,817],[442,"CDISCPILOT01","701","1148","SUPINE","SUPINE","SUPINE","69","","72","115","98.7","196.0","mmHg","","BEATS/MIN","mmHg","F","LB","","","","","","","ORAL CAVITY","WEEK 4","19-SEP-2013","19-SEP-2013","","19-SEP-2013","19-SEP-2013","19-SEP-2013","19-SEP-2013","AFTER LYING DOWN FOR 5 MINUTES","AFTER LYING DOWN FOR 5 MINUTES","AFTER LYING DOWN FOR 5 MINUTES",815,815,815],[443,"CDISCPILOT01","701","1148","STANDING","STANDING","STANDING","65","","83","101","","","mmHg","","BEATS/MIN","mmHg","","","","","","","","","","WEEK 4","19-SEP-2013","19-SEP-2013","","19-SEP-2013","19-SEP-2013","","","AFTER STANDING FOR 1 MINUTE","AFTER STANDING FOR 1 MINUTE","AFTER STANDING FOR 1 MINUTE",816,816,816],[444,"CDISCPILOT01","701","1148","STANDING","STANDING","STANDING","61","","84","95","","","mmHg","","BEATS/MIN","mmHg","","","","","","","","","","WEEK 4","19-SEP-2013","19-SEP-2013","","19-SEP-2013","19-SEP-2013","","","AFTER STANDING FOR 3 MINUTES","AFTER STANDING FOR 3 MINUTES","AFTER STANDING FOR 3 MINUTES",817,817,817],[445,"CDISCPILOT01","701","1148","SUPINE","SUPINE","SUPINE","76","","70","123","97.8","","mmHg","","BEATS/MIN","mmHg","F","","","","","","","","ORAL CAVITY","AMBUL ECG REMOVAL","21-SEP-2013","21-SEP-2013","","21-SEP-2013","21-SEP-2013","21-SEP-2013","","AFTER LYING DOWN FOR 5 MINUTES","AFTER LYING DOWN FOR 5 MINUTES","AFTER LYING DOWN FOR 5 MINUTES",815,815,815],[446,"CDISCPILOT01","701","1148","STANDING","STANDING","STANDING","77","","76","116","","","mmHg","","BEATS/MIN","mmHg","","","","","","","","","","AMBUL ECG REMOVAL","21-SEP-2013","21-SEP-2013","","21-SEP-2013","21-SEP-2013","","","AFTER STANDING FOR 1 MINUTE","AFTER STANDING FOR 1 MINUTE","AFTER STANDING FOR 1 MINUTE",816,816,816],[447,"CDISCPILOT01","701","1148","STANDING","STANDING","STANDING","79","","77","118","","","mmHg","","BEATS/MIN","mmHg","","","","","","","","","","AMBUL ECG REMOVAL","21-SEP-2013","21-SEP-2013","","21-SEP-2013","21-SEP-2013","","","AFTER STANDING FOR 3 MINUTES","AFTER STANDING FOR 3 MINUTES","AFTER STANDING FOR 3 MINUTES",817,817,817],[448,"CDISCPILOT01","701","1148","SUPINE","SUPINE","SUPINE","76","","61","115","97.9","193.0","mmHg","","BEATS/MIN","mmHg","F","LB","","","","","","","ORAL CAVITY","WEEK 6","03-OCT-2013","03-OCT-2013","","03-OCT-2013","03-OCT-2013","03-OCT-2013","03-OCT-2013","AFTER LYING DOWN FOR 5 MINUTES","AFTER LYING DOWN FOR 5 MINUTES","AFTER LYING DOWN FOR 5 MINUTES",815,815,815],[449,"CDISCPILOT01","701","1148","STANDING","STANDING","STANDING","60","","73","106","","","mmHg","","BEATS/MIN","mmHg","","","","","","","","","","WEEK 6","03-OCT-2013","03-OCT-2013","","03-OCT-2013","03-OCT-2013","","","AFTER STANDING FOR 1 MINUTE","AFTER STANDING FOR 1 MINUTE","AFTER STANDING FOR 1 MINUTE",816,816,816],[450,"CDISCPILOT01","701","1148","STANDING","STANDING","STANDING","70","","74","108","","","mmHg","","BEATS/MIN","mmHg","","","","","","","","","","WEEK 6","03-OCT-2013","03-OCT-2013","","03-OCT-2013","03-OCT-2013","","","AFTER STANDING FOR 3 MINUTES","AFTER STANDING FOR 3 MINUTES","AFTER STANDING FOR 3 MINUTES",817,817,817],[451,"CDISCPILOT01","701","1148","SUPINE","SUPINE","SUPINE","75","","70","122","97.8","195.0","mmHg","","BEATS/MIN","mmHg","F","LB","","","","","","","ORAL CAVITY","WEEK 8","18-OCT-2013","18-OCT-2013","","18-OCT-2013","18-OCT-2013","18-OCT-2013","18-OCT-2013","AFTER LYING DOWN FOR 5 MINUTES","AFTER LYING DOWN FOR 5 MINUTES","AFTER LYING DOWN FOR 5 MINUTES",815,815,815],[452,"CDISCPILOT01","701","1148","STANDING","STANDING","STANDING","75","","80","110","","","mmHg","","BEATS/MIN","mmHg","","","","","","","","","","WEEK 8","18-OCT-2013","18-OCT-2013","","18-OCT-2013","18-OCT-2013","","","AFTER STANDING FOR 1 MINUTE","AFTER STANDING FOR 1 MINUTE","AFTER STANDING FOR 1 MINUTE",816,816,816],[453,"CDISCPILOT01","701","1148","STANDING","STANDING","STANDING","77","","77","116","","","mmHg","","BEATS/MIN","mmHg","","","","","","","","","","WEEK 8","18-OCT-2013","18-OCT-2013","","18-OCT-2013","18-OCT-2013","","","AFTER STANDING FOR 3 MINUTES","AFTER STANDING FOR 3 MINUTES","AFTER STANDING FOR 3 MINUTES",817,817,817],[454,"CDISCPILOT01","701","1148","SUPINE","SUPINE","SUPINE","68","","57","114","97.8","195.0","mmHg","","BEATS/MIN","mmHg","F","LB","","","","","","","ORAL CAVITY","WEEK 12","17-NOV-2013","17-NOV-2013","","17-NOV-2013","17-NOV-2013","17-NOV-2013","17-NOV-2013","AFTER LYING DOWN FOR 5 MINUTES","AFTER LYING DOWN FOR 5 MINUTES","AFTER LYING DOWN FOR 5 MINUTES",815,815,815],[455,"CDISCPILOT01","701","1148","STANDING","STANDING","STANDING","69","","65","107","","","mmHg","","BEATS/MIN","mmHg","","","","","","","","","","WEEK 12","17-NOV-2013","17-NOV-2013","","17-NOV-2013","17-NOV-2013","","","AFTER STANDING FOR 1 MINUTE","AFTER STANDING FOR 1 MINUTE","AFTER STANDING FOR 1 MINUTE",816,816,816],[456,"CDISCPILOT01","701","1148","STANDING","STANDING","STANDING","69","","70","108","","","mmHg","","BEATS/MIN","mmHg","","","","","","","","","","WEEK 12","17-NOV-2013","17-NOV-2013","","17-NOV-2013","17-NOV-2013","","","AFTER STANDING FOR 3 MINUTES","AFTER STANDING FOR 3 MINUTES","AFTER STANDING FOR 3 MINUTES",817,817,817],[457,"CDISCPILOT01","701","1148","SUPINE","SUPINE","SUPINE","68","","60","114","98.0","194.0","mmHg","","BEATS/MIN","mmHg","F","LB","","","","","","","ORAL CAVITY","WEEK 16","13-DEC-2013","13-DEC-2013","","13-DEC-2013","13-DEC-2013","13-DEC-2013","13-DEC-2013","AFTER LYING DOWN FOR 5 MINUTES","AFTER LYING DOWN FOR 5 MINUTES","AFTER LYING DOWN FOR 5 MINUTES",815,815,815],[458,"CDISCPILOT01","701","1148","STANDING","STANDING","STANDING","73","","78","107","","","mmHg","","BEATS/MIN","mmHg","","","","","","","","","","WEEK 16","13-DEC-2013","13-DEC-2013","","13-DEC-2013","13-DEC-2013","","","AFTER STANDING FOR 1 MINUTE","AFTER STANDING FOR 1 MINUTE","AFTER STANDING FOR 1 MINUTE",816,816,816],[459,"CDISCPILOT01","701","1148","STANDING","STANDING","STANDING","76","","77","109","","","mmHg","","BEATS/MIN","mmHg","","","","","","","","","","WEEK 16","13-DEC-2013","13-DEC-2013","","13-DEC-2013","13-DEC-2013","","","AFTER STANDING FOR 3 MINUTES","AFTER STANDING FOR 3 MINUTES","AFTER STANDING FOR 3 MINUTES",817,817,817],[460,"CDISCPILOT01","701","1148","SUPINE","SUPINE","SUPINE","69","","52","116","97.6","199.0","mmHg","","BEATS/MIN","mmHg","F","LB","","","","","","","ORAL CAVITY","WEEK 20","10-JAN-2014","10-JAN-2014","","10-JAN-2014","10-JAN-2014","10-JAN-2014","10-JAN-2014","AFTER LYING DOWN FOR 5 MINUTES","AFTER LYING DOWN FOR 5 MINUTES","AFTER LYING DOWN FOR 5 MINUTES",815,815,815],[461,"CDISCPILOT01","701","1148","STANDING","STANDING","STANDING","63","","59","105","","","mmHg","","BEATS/MIN","mmHg","","","","","","","","","","WEEK 20","10-JAN-2014","10-JAN-2014","","10-JAN-2014","10-JAN-2014","","","AFTER STANDING FOR 1 MINUTE","AFTER STANDING FOR 1 MINUTE","AFTER STANDING FOR 1 MINUTE",816,816,816],[462,"CDISCPILOT01","701","1148","STANDING","STANDING","STANDING","69","","59","102","","","mmHg","","BEATS/MIN","mmHg","","","","","","","","","","WEEK 20","10-JAN-2014","10-JAN-2014","","10-JAN-2014","10-JAN-2014","","","AFTER STANDING FOR 3 MINUTES","AFTER STANDING FOR 3 MINUTES","AFTER STANDING FOR 3 MINUTES",817,817,817],[463,"CDISCPILOT01","701","1148","SUPINE","SUPINE","SUPINE","64","","59","101","97.6","199.0","mmHg","","BEATS/MIN","mmHg","F","LB","","","","","","","ORAL CAVITY","WEEK 24","08-FEB-2014","08-FEB-2014","","08-FEB-2014","08-FEB-2014","08-FEB-2014","08-FEB-2014","AFTER LYING DOWN FOR 5 MINUTES","AFTER LYING DOWN FOR 5 MINUTES","AFTER LYING DOWN FOR 5 MINUTES",815,815,815],[464,"CDISCPILOT01","701","1148","STANDING","STANDING","STANDING","73","","74","96","","","mmHg","","BEATS/MIN","mmHg","","","","","","","","","","WEEK 24","08-FEB-2014","08-FEB-2014","","08-FEB-2014","08-FEB-2014","","","AFTER STANDING FOR 1 MINUTE","AFTER STANDING FOR 1 MINUTE","AFTER STANDING FOR 1 MINUTE",816,816,816],[465,"CDISCPILOT01","701","1148","STANDING","STANDING","STANDING","73","","76","100","","","mmHg","","BEATS/MIN","mmHg","","","","","","","","","","WEEK 24","08-FEB-2014","08-FEB-2014","","08-FEB-2014","08-FEB-2014","","","AFTER STANDING FOR 3 MINUTES","AFTER STANDING FOR 3 MINUTES","AFTER STANDING FOR 3 MINUTES",817,817,817],[466,"CDISCPILOT01","701","1148","SUPINE","SUPINE","SUPINE","68","","62","107","97.5","200.0","mmHg","","BEATS/MIN","mmHg","F","LB","","","","","","","ORAL CAVITY","WEEK 26","20-FEB-2014","20-FEB-2014","","20-FEB-2014","20-FEB-2014","20-FEB-2014","20-FEB-2014","AFTER LYING DOWN FOR 5 MINUTES","AFTER LYING DOWN FOR 5 MINUTES","AFTER LYING DOWN FOR 5 MINUTES",815,815,815],[467,"CDISCPILOT01","701","1148","STANDING","STANDING","STANDING","73","","77","99","","","mmHg","","BEATS/MIN","mmHg","","","","","","","","","","WEEK 26","20-FEB-2014","20-FEB-2014","","20-FEB-2014","20-FEB-2014","","","AFTER STANDING FOR 1 MINUTE","AFTER STANDING FOR 1 MINUTE","AFTER STANDING FOR 1 MINUTE",816,816,816],[468,"CDISCPILOT01","701","1148","STANDING","STANDING","STANDING","68","","75","95","","","mmHg","","BEATS/MIN","mmHg","","","","","","","","","","WEEK 26","20-FEB-2014","20-FEB-2014","","20-FEB-2014","20-FEB-2014","","","AFTER STANDING FOR 3 MINUTES","AFTER STANDING FOR 3 MINUTES","AFTER STANDING FOR 3 MINUTES",817,817,817],[469,"CDISCPILOT01","701","1153","SUPINE","SUPINE","SUPINE","67","061.5","80","144","098.3","128.0","mmHg","IN","BEATS/MIN","mmHg","F","LB","","","","","","","ORAL CAVITY","SCREENING 1","06-SEP-2013","06-SEP-2013","06-SEP-2013","06-SEP-2013","06-SEP-2013","06-SEP-2013","06-SEP-2013","AFTER LYING DOWN FOR 5 MINUTES","AFTER LYING DOWN FOR 5 MINUTES","AFTER LYING DOWN FOR 5 MINUTES",815,815,815],[470,"CDISCPILOT01","701","1153","STANDING","STANDING","STANDING","68","","88","129","","","mmHg","","BEATS/MIN","mmHg","","","","","","","","","","SCREENING 1","06-SEP-2013","06-SEP-2013","","06-SEP-2013","06-SEP-2013","","","AFTER STANDING FOR 1 MINUTE","AFTER STANDING FOR 1 MINUTE","AFTER STANDING FOR 1 MINUTE",816,816,816],[471,"CDISCPILOT01","701","1153","STANDING","STANDING","STANDING","72","","86","130","","","mmHg","","BEATS/MIN","mmHg","","","","","","","","","","SCREENING 1","06-SEP-2013","06-SEP-2013","","06-SEP-2013","06-SEP-2013","","","AFTER STANDING FOR 3 MINUTES","AFTER STANDING FOR 3 MINUTES","AFTER STANDING FOR 3 MINUTES",817,817,817],[472,"CDISCPILOT01","701","1153","SUPINE","SUPINE","SUPINE","68","","80","150","098.4","","mmHg","","BEATS/MIN","mmHg","F","","","","","","","","ORAL CAVITY","SCREENING 2","18-SEP-2013","18-SEP-2013","","18-SEP-2013","18-SEP-2013","18-SEP-2013","","AFTER LYING DOWN FOR 5 MINUTES","AFTER LYING DOWN FOR 5 MINUTES","AFTER LYING DOWN FOR 5 MINUTES",815,815,815],[473,"CDISCPILOT01","701","1153","STANDING","STANDING","STANDING","74","","88","136","","","mmHg","","BEATS/MIN","mmHg","","","","","","","","","","SCREENING 2","18-SEP-2013","18-SEP-2013","","18-SEP-2013","18-SEP-2013","","","AFTER STANDING FOR 1 MINUTE","AFTER STANDING FOR 1 MINUTE","AFTER STANDING FOR 1 MINUTE",816,816,816],[474,"CDISCPILOT01","701","1153","STANDING","STANDING","STANDING","72","","86","142","","","mmHg","","BEATS/MIN","mmHg","","","","","","","","","","SCREENING 2","18-SEP-2013","18-SEP-2013","","18-SEP-2013","18-SEP-2013","","","AFTER STANDING FOR 3 MINUTES","AFTER STANDING FOR 3 MINUTES","AFTER STANDING FOR 3 MINUTES",817,817,817],[475,"CDISCPILOT01","701","1153","SUPINE","SUPINE","SUPINE","60","","84","142","098.5","128.0","mmHg","","BEATS/MIN","mmHg","F","LB","","","","","","","ORAL CAVITY","BASELINE","23-SEP-2013","23-SEP-2013","","23-SEP-2013","23-SEP-2013","23-SEP-2013","23-SEP-2013","AFTER LYING DOWN FOR 5 MINUTES","AFTER LYING DOWN FOR 5 MINUTES","AFTER LYING DOWN FOR 5 MINUTES",815,815,815],[476,"CDISCPILOT01","701","1153","STANDING","STANDING","STANDING","62","","89","137","","","mmHg","","BEATS/MIN","mmHg","","","","","","","","","","BASELINE","23-SEP-2013","23-SEP-2013","","23-SEP-2013","23-SEP-2013","","","AFTER STANDING FOR 1 MINUTE","AFTER STANDING FOR 1 MINUTE","AFTER STANDING FOR 1 MINUTE",816,816,816],[477,"CDISCPILOT01","701","1153","STANDING","STANDING","STANDING","60","","86","138","","","mmHg","","BEATS/MIN","mmHg","","","","","","","","","","BASELINE","23-SEP-2013","23-SEP-2013","","23-SEP-2013","23-SEP-2013","","","AFTER STANDING FOR 3 MINUTES","AFTER STANDING FOR 3 MINUTES","AFTER STANDING FOR 3 MINUTES",817,817,817],[478,"CDISCPILOT01","701","1153","SUPINE","SUPINE","SUPINE","72","","82","146","098.2","","mmHg","","BEATS/MIN","mmHg","F","","","","","","","","ORAL CAVITY","AMBUL ECG PLACEMENT","07-OCT-2013","07-OCT-2013","","07-OCT-2013","07-OCT-2013","07-OCT-2013","","AFTER LYING DOWN FOR 5 MINUTES","AFTER LYING DOWN FOR 5 MINUTES","AFTER LYING DOWN FOR 5 MINUTES",815,815,815],[479,"CDISCPILOT01","701","1153","STANDING","STANDING","STANDING","68","","88","138","","","mmHg","","BEATS/MIN","mmHg","","","","","","","","","","AMBUL ECG PLACEMENT","07-OCT-2013","07-OCT-2013","","07-OCT-2013","07-OCT-2013","","","AFTER STANDING FOR 1 MINUTE","AFTER STANDING FOR 1 MINUTE","AFTER STANDING FOR 1 MINUTE",816,816,816],[480,"CDISCPILOT01","701","1153","STANDING","STANDING","STANDING","74","","86","146","","","mmHg","","BEATS/MIN","mmHg","","","","","","","","","","AMBUL ECG PLACEMENT","07-OCT-2013","07-OCT-2013","","07-OCT-2013","07-OCT-2013","","","AFTER STANDING FOR 3 MINUTES","AFTER STANDING FOR 3 MINUTES","AFTER STANDING FOR 3 MINUTES",817,817,817],[481,"CDISCPILOT01","701","1153","SUPINE","SUPINE","SUPINE","63","","72","142","098.3","126.0","mmHg","","BEATS/MIN","mmHg","F","LB","","","","","","","ORAL CAVITY","WEEK 2","08-OCT-2013","08-OCT-2013","","08-OCT-2013","08-OCT-2013","08-OCT-2013","08-OCT-2013","AFTER LYING DOWN FOR 5 MINUTES","AFTER LYING DOWN FOR 5 MINUTES","AFTER LYING DOWN FOR 5 MINUTES",815,815,815],[482,"CDISCPILOT01","701","1153","STANDING","STANDING","STANDING","52","","74","154","","","mmHg","","BEATS/MIN","mmHg","","","","","","","","","","WEEK 2","08-OCT-2013","08-OCT-2013","","08-OCT-2013","08-OCT-2013","","","AFTER STANDING FOR 1 MINUTE","AFTER STANDING FOR 1 MINUTE","AFTER STANDING FOR 1 MINUTE",816,816,816],[483,"CDISCPILOT01","701","1153","STANDING","STANDING","STANDING","67","","79","141","","","mmHg","","BEATS/MIN","mmHg","","","","","","","","","","WEEK 2","08-OCT-2013","08-OCT-2013","","08-OCT-2013","08-OCT-2013","","","AFTER STANDING FOR 3 MINUTES","AFTER STANDING FOR 3 MINUTES","AFTER STANDING FOR 3 MINUTES",817,817,817],[484,"CDISCPILOT01","701","1153","SUPINE","SUPINE","SUPINE","56","","76","138","099.0","125.0","mmHg","","BEATS/MIN","mmHg","F","LB","","","","","","","ORAL CAVITY","WEEK 4","19-OCT-2013","19-OCT-2013","","19-OCT-2013","19-OCT-2013","19-OCT-2013","19-OCT-2013","AFTER LYING DOWN FOR 5 MINUTES","AFTER LYING DOWN FOR 5 MINUTES","AFTER LYING DOWN FOR 5 MINUTES",815,815,815],[485,"CDISCPILOT01","701","1153","STANDING","STANDING","STANDING","52","","75","136","","","mmHg","","BEATS/MIN","mmHg","","","","","","","","","","WEEK 4","19-OCT-2013","19-OCT-2013","","19-OCT-2013","19-OCT-2013","","","AFTER STANDING FOR 1 MINUTE","AFTER STANDING FOR 1 MINUTE","AFTER STANDING FOR 1 MINUTE",816,816,816],[486,"CDISCPILOT01","701","1153","STANDING","STANDING","STANDING","61","","78","138","","","mmHg","","BEATS/MIN","mmHg","","","","","","","","","","WEEK 4","19-OCT-2013","19-OCT-2013","","19-OCT-2013","19-OCT-2013","","","AFTER STANDING FOR 3 MINUTES","AFTER STANDING FOR 3 MINUTES","AFTER STANDING FOR 3 MINUTES",817,817,817],[487,"CDISCPILOT01","701","1153","SUPINE","SUPINE","SUPINE","57","","70","145","098.9","","mmHg","","BEATS/MIN","mmHg","F","","","","","","","","ORAL CAVITY","AMBUL ECG REMOVAL","28-OCT-2013","28-OCT-2013","","28-OCT-2013","28-OCT-2013","28-OCT-2013","","AFTER LYING DOWN FOR 5 MINUTES","AFTER LYING DOWN FOR 5 MINUTES","AFTER LYING DOWN FOR 5 MINUTES",815,815,815],[488,"CDISCPILOT01","701","1153","STANDING","STANDING","STANDING","52","","76","122","","","mmHg","","BEATS/MIN","mmHg","","","","","","","","","","AMBUL ECG REMOVAL","28-OCT-2013","28-OCT-2013","","28-OCT-2013","28-OCT-2013","","","AFTER STANDING FOR 1 MINUTE","AFTER STANDING FOR 1 MINUTE","AFTER STANDING FOR 1 MINUTE",816,816,816],[489,"CDISCPILOT01","701","1153","STANDING","STANDING","STANDING","54","","74","132","","","mmHg","","BEATS/MIN","mmHg","","","","","","","","","","AMBUL ECG REMOVAL","28-OCT-2013","28-OCT-2013","","28-OCT-2013","28-OCT-2013","","","AFTER STANDING FOR 3 MINUTES","AFTER STANDING FOR 3 MINUTES","AFTER STANDING FOR 3 MINUTES",817,817,817],[490,"CDISCPILOT01","701","1153","SUPINE","SUPINE","SUPINE","59","","66","145","98.1","127.0","mmHg","","BEATS/MIN","mmHg","F","LB","","","","","","","ORAL CAVITY","WEEK 6","04-NOV-2013","04-NOV-2013","","04-NOV-2013","04-NOV-2013","04-NOV-2013","04-NOV-2013","AFTER LYING DOWN FOR 5 MINUTES","AFTER LYING DOWN FOR 5 MINUTES","AFTER LYING DOWN FOR 5 MINUTES",815,815,815],[491,"CDISCPILOT01","701","1153","STANDING","STANDING","STANDING","68","","78","151","","","mmHg","","BEATS/MIN","mmHg","","","","","","","","","","WEEK 6","04-NOV-2013","04-NOV-2013","","04-NOV-2013","04-NOV-2013","","","AFTER STANDING FOR 1 MINUTE","AFTER STANDING FOR 1 MINUTE","AFTER STANDING FOR 1 MINUTE",816,816,816],[492,"CDISCPILOT01","701","1153","STANDING","STANDING","STANDING","72","","72","154","","","mmHg","","BEATS/MIN","mmHg","","","","","","","","","","WEEK 6","04-NOV-2013","04-NOV-2013","","04-NOV-2013","04-NOV-2013","","","AFTER STANDING FOR 3 MINUTES","AFTER STANDING FOR 3 MINUTES","AFTER STANDING FOR 3 MINUTES",817,817,817],[493,"CDISCPILOT01","701","1153","SUPINE","SUPINE","SUPINE","56","","74","144","98.3","128.0","mmHg","","BEATS/MIN","mmHg","F","LB","","","","","","","ORAL CAVITY","WEEK 8","18-NOV-2013","18-NOV-2013","","18-NOV-2013","18-NOV-2013","18-NOV-2013","18-NOV-2013","AFTER LYING DOWN FOR 5 MINUTES","AFTER LYING DOWN FOR 5 MINUTES","AFTER LYING DOWN FOR 5 MINUTES",815,815,815],[494,"CDISCPILOT01","701","1153","STANDING","STANDING","STANDING","66","","80","139","","","mmHg","","BEATS/MIN","mmHg","","","","","","","","","","WEEK 8","18-NOV-2013","18-NOV-2013","","18-NOV-2013","18-NOV-2013","","","AFTER STANDING FOR 1 MINUTE","AFTER STANDING FOR 1 MINUTE","AFTER STANDING FOR 1 MINUTE",816,816,816],[495,"CDISCPILOT01","701","1153","STANDING","STANDING","STANDING","60","","78","138","","","mmHg","","BEATS/MIN","mmHg","","","","","","","","","","WEEK 8","18-NOV-2013","18-NOV-2013","","18-NOV-2013","18-NOV-2013","","","AFTER STANDING FOR 3 MINUTES","AFTER STANDING FOR 3 MINUTES","AFTER STANDING FOR 3 MINUTES",817,817,817],[496,"CDISCPILOT01","701","1153","SUPINE","SUPINE","SUPINE","63","","80","161","98.2","126.0","mmHg","","BEATS/MIN","mmHg","F","LB","","","","","","","ORAL CAVITY","WEEK 12","16-DEC-2013","16-DEC-2013","","16-DEC-2013","16-DEC-2013","16-DEC-2013","16-DEC-2013","AFTER LYING DOWN FOR 5 MINUTES","AFTER LYING DOWN FOR 5 MINUTES","AFTER LYING DOWN FOR 5 MINUTES",815,815,815],[497,"CDISCPILOT01","701","1153","STANDING","STANDING","STANDING","66","","84","140","","","mmHg","","BEATS/MIN","mmHg","","","","","","","","","","WEEK 12","16-DEC-2013","16-DEC-2013","","16-DEC-2013","16-DEC-2013","","","AFTER STANDING FOR 1 MINUTE","AFTER STANDING FOR 1 MINUTE","AFTER STANDING FOR 1 MINUTE",816,816,816],[498,"CDISCPILOT01","701","1153","STANDING","STANDING","STANDING","60","","86","145","","","mmHg","","BEATS/MIN","mmHg","","","","","","","","","","WEEK 12","16-DEC-2013","16-DEC-2013","","16-DEC-2013","16-DEC-2013","","","AFTER STANDING FOR 3 MINUTES","AFTER STANDING FOR 3 MINUTES","AFTER STANDING FOR 3 MINUTES",817,817,817],[499,"CDISCPILOT01","701","1153","SUPINE","SUPINE","SUPINE","62","","74","150","98.5","124.0","mmHg","","BEATS/MIN","mmHg","F","LB","","","","","","","ORAL CAVITY","WEEK 16","08-JAN-2014","08-JAN-2014","","08-JAN-2014","08-JAN-2014","08-JAN-2014","08-JAN-2014","AFTER LYING DOWN FOR 5 MINUTES","AFTER LYING DOWN FOR 5 MINUTES","AFTER LYING DOWN FOR 5 MINUTES",815,815,815],[500,"CDISCPILOT01","701","1153","STANDING","STANDING","STANDING","56","","74","145","","","mmHg","","BEATS/MIN","mmHg","","","","","","","","","","WEEK 16","08-JAN-2014","08-JAN-2014","","08-JAN-2014","08-JAN-2014","","","AFTER STANDING FOR 1 MINUTE","AFTER STANDING FOR 1 MINUTE","AFTER STANDING FOR 1 MINUTE",816,816,816],[501,"CDISCPILOT01","701","1153","STANDING","STANDING","STANDING","56","","76","154","","","mmHg","","BEATS/MIN","mmHg","","","","","","","","","","WEEK 16","08-JAN-2014","08-JAN-2014","","08-JAN-2014","08-JAN-2014","","","AFTER STANDING FOR 3 MINUTES","AFTER STANDING FOR 3 MINUTES","AFTER STANDING FOR 3 MINUTES",817,817,817],[502,"CDISCPILOT01","701","1153","SUPINE","SUPINE","SUPINE","54","","68","144","97.6","126.0","mmHg","","BEATS/MIN","mmHg","F","LB","","","","","","","ORAL CAVITY","WEEK 20","11-FEB-2014","11-FEB-2014","","11-FEB-2014","11-FEB-2014","11-FEB-2014","11-FEB-2014","AFTER LYING DOWN FOR 5 MINUTES","AFTER LYING DOWN FOR 5 MINUTES","AFTER LYING DOWN FOR 5 MINUTES",815,815,815],[503,"CDISCPILOT01","701","1153","STANDING","STANDING","STANDING","57","","68","138","","","mmHg","","BEATS/MIN","mmHg","","","","","","","","","","WEEK 20","11-FEB-2014","11-FEB-2014","","11-FEB-2014","11-FEB-2014","","","AFTER STANDING FOR 1 MINUTE","AFTER STANDING FOR 1 MINUTE","AFTER STANDING FOR 1 MINUTE",816,816,816],[504,"CDISCPILOT01","701","1153","STANDING","STANDING","STANDING","61","","71","138","","","mmHg","","BEATS/MIN","mmHg","","","","","","","","","","WEEK 20","11-FEB-2014","11-FEB-2014","","11-FEB-2014","11-FEB-2014","","","AFTER STANDING FOR 3 MINUTES","AFTER STANDING FOR 3 MINUTES","AFTER STANDING FOR 3 MINUTES",817,817,817],[505,"CDISCPILOT01","701","1153","SUPINE","SUPINE","SUPINE","55","","74","153","98.9","124.0","mmHg","","BEATS/MIN","mmHg","F","LB","","","","","","","ORAL CAVITY","WEEK 24","11-MAR-2014","11-MAR-2014","","11-MAR-2014","11-MAR-2014","11-MAR-2014","11-MAR-2014","AFTER LYING DOWN FOR 5 MINUTES","AFTER LYING DOWN FOR 5 MINUTES","AFTER LYING DOWN FOR 5 MINUTES",815,815,815],[506,"CDISCPILOT01","701","1153","STANDING","STANDING","STANDING","52","","77","140","","","mmHg","","BEATS/MIN","mmHg","","","","","","","","","","WEEK 24","11-MAR-2014","11-MAR-2014","","11-MAR-2014","11-MAR-2014","","","AFTER STANDING FOR 1 MINUTE","AFTER STANDING FOR 1 MINUTE","AFTER STANDING FOR 1 MINUTE",816,816,816],[507,"CDISCPILOT01","701","1153","STANDING","STANDING","STANDING","58","","79","145","","","mmHg","","BEATS/MIN","mmHg","","","","","","","","","","WEEK 24","11-MAR-2014","11-MAR-2014","","11-MAR-2014","11-MAR-2014","","","AFTER STANDING FOR 3 MINUTES","AFTER STANDING FOR 3 MINUTES","AFTER STANDING FOR 3 MINUTES",817,817,817],[508,"CDISCPILOT01","701","1153","SUPINE","SUPINE","SUPINE","58","","76","160","97.7","125.0","mmHg","","BEATS/MIN","mmHg","F","LB","","","","","","","ORAL CAVITY","WEEK 26","01-APR-2014","01-APR-2014","","01-APR-2014","01-APR-2014","01-APR-2014","01-APR-2014","AFTER LYING DOWN FOR 5 MINUTES","AFTER LYING DOWN FOR 5 MINUTES","AFTER LYING DOWN FOR 5 MINUTES",815,815,815],[509,"CDISCPILOT01","701","1153","STANDING","STANDING","STANDING","56","","76","152","","","mmHg","","BEATS/MIN","mmHg","","","","","","","","","","WEEK 26","01-APR-2014","01-APR-2014","","01-APR-2014","01-APR-2014","","","AFTER STANDING FOR 1 MINUTE","AFTER STANDING FOR 1 MINUTE","AFTER STANDING FOR 1 MINUTE",816,816,816],[510,"CDISCPILOT01","701","1153","STANDING","STANDING","STANDING","63","","80","161","","","mmHg","","BEATS/MIN","mmHg","","","","","","","","","","WEEK 26","01-APR-2014","01-APR-2014","","01-APR-2014","01-APR-2014","","","AFTER STANDING FOR 3 MINUTES","AFTER STANDING FOR 3 MINUTES","AFTER STANDING FOR 3 MINUTES",817,817,817],[511,"CDISCPILOT01","701","1180","SUPINE","SUPINE","SUPINE","86","071.0","60","146","098.5","196.0","mmHg","IN","BEATS/MIN","mmHg","F","LB","","","","","","","ORAL CAVITY","SCREENING 1","28-JAN-2013","28-JAN-2013","28-JAN-2013","28-JAN-2013","28-JAN-2013","28-JAN-2013","28-JAN-2013","AFTER LYING DOWN FOR 5 MINUTES","AFTER LYING DOWN FOR 5 MINUTES","AFTER LYING DOWN FOR 5 MINUTES",815,815,815],[512,"CDISCPILOT01","701","1180","STANDING","STANDING","STANDING","88","","68","144","","","mmHg","","BEATS/MIN","mmHg","","","","","","","","","","SCREENING 1","28-JAN-2013","28-JAN-2013","","28-JAN-2013","28-JAN-2013","","","AFTER STANDING FOR 1 MINUTE","AFTER STANDING FOR 1 MINUTE","AFTER STANDING FOR 1 MINUTE",816,816,816],[513,"CDISCPILOT01","701","1180","STANDING","STANDING","STANDING","90","","64","138","","","mmHg","","BEATS/MIN","mmHg","","","","","","","","","","SCREENING 1","28-JAN-2013","28-JAN-2013","","28-JAN-2013","28-JAN-2013","","","AFTER STANDING FOR 3 MINUTES","AFTER STANDING FOR 3 MINUTES","AFTER STANDING FOR 3 MINUTES",817,817,817],[514,"CDISCPILOT01","701","1180","SUPINE","SUPINE","SUPINE","84","","60","134","098.6","","mmHg","","BEATS/MIN","mmHg","F","","","","","","","","ORAL CAVITY","SCREENING 2","10-FEB-2013","10-FEB-2013","","10-FEB-2013","10-FEB-2013","10-FEB-2013","","AFTER LYING DOWN FOR 5 MINUTES","AFTER LYING DOWN FOR 5 MINUTES","AFTER LYING DOWN FOR 5 MINUTES",815,815,815],[515,"CDISCPILOT01","701","1180","STANDING","STANDING","STANDING","82","","64","130","","","mmHg","","BEATS/MIN","mmHg","","","","","","","","","","SCREENING 2","10-FEB-2013","10-FEB-2013","","10-FEB-2013","10-FEB-2013","","","AFTER STANDING FOR 1 MINUTE","AFTER STANDING FOR 1 MINUTE","AFTER STANDING FOR 1 MINUTE",816,816,816],[516,"CDISCPILOT01","701","1180","STANDING","STANDING","STANDING","84","","66","130","","","mmHg","","BEATS/MIN","mmHg","","","","","","","","","","SCREENING 2","10-FEB-2013","10-FEB-2013","","10-FEB-2013","10-FEB-2013","","","AFTER STANDING FOR 3 MINUTES","AFTER STANDING FOR 3 MINUTES","AFTER STANDING FOR 3 MINUTES",817,817,817],[517,"CDISCPILOT01","701","1180","SUPINE","SUPINE","SUPINE","76","","66","132","097.8","198.0","mmHg","","BEATS/MIN","mmHg","F","LB","","","","","","","ORAL CAVITY","BASELINE","12-FEB-2013","12-FEB-2013","","12-FEB-2013","12-FEB-2013","12-FEB-2013","12-FEB-2013","AFTER LYING DOWN FOR 5 MINUTES","AFTER LYING DOWN FOR 5 MINUTES","AFTER LYING DOWN FOR 5 MINUTES",815,815,815],[518,"CDISCPILOT01","701","1180","STANDING","STANDING","STANDING","80","","74","130","","","mmHg","","BEATS/MIN","mmHg","","","","","","","","","","BASELINE","12-FEB-2013","12-FEB-2013","","12-FEB-2013","12-FEB-2013","","","AFTER STANDING FOR 1 MINUTE","AFTER STANDING FOR 1 MINUTE","AFTER STANDING FOR 1 MINUTE",816,816,816],[519,"CDISCPILOT01","701","1180","STANDING","STANDING","STANDING","84","","70","130","","","mmHg","","BEATS/MIN","mmHg","","","","","","","","","","BASELINE","12-FEB-2013","12-FEB-2013","","12-FEB-2013","12-FEB-2013","","","AFTER STANDING FOR 3 MINUTES","AFTER STANDING FOR 3 MINUTES","AFTER STANDING FOR 3 MINUTES",817,817,817],[520,"CDISCPILOT01","701","1180","SUPINE","SUPINE","SUPINE","91","","71","144","097.8","","mmHg","","BEATS/MIN","mmHg","F","","","","","","","","ORAL CAVITY","AMBUL ECG PLACEMENT","24-FEB-2013","24-FEB-2013","","24-FEB-2013","24-FEB-2013","24-FEB-2013","","AFTER LYING DOWN FOR 5 MINUTES","AFTER LYING DOWN FOR 5 MINUTES","AFTER LYING DOWN FOR 5 MINUTES",815,815,815],[521,"CDISCPILOT01","701","1180","STANDING","STANDING","STANDING","96","","77","131","","","mmHg","","BEATS/MIN","mmHg","","","","","","","","","","AMBUL ECG PLACEMENT","24-FEB-2013","24-FEB-2013","","24-FEB-2013","24-FEB-2013","","","AFTER STANDING FOR 1 MINUTE","AFTER STANDING FOR 1 MINUTE","AFTER STANDING FOR 1 MINUTE",816,816,816],[522,"CDISCPILOT01","701","1180","STANDING","STANDING","STANDING","99","","78","138","","","mmHg","","BEATS/MIN","mmHg","","","","","","","","","","AMBUL ECG PLACEMENT","24-FEB-2013","24-FEB-2013","","24-FEB-2013","24-FEB-2013","","","AFTER STANDING FOR 3 MINUTES","AFTER STANDING FOR 3 MINUTES","AFTER STANDING FOR 3 MINUTES",817,817,817],[523,"CDISCPILOT01","701","1180","SUPINE","SUPINE","SUPINE","87","","68","138","098.7","199.0","mmHg","","BEATS/MIN","mmHg","F","LB","","","","","","","ORAL CAVITY","WEEK 2","25-FEB-2013","25-FEB-2013","","25-FEB-2013","25-FEB-2013","25-FEB-2013","25-FEB-2013","AFTER LYING DOWN FOR 5 MINUTES","AFTER LYING DOWN FOR 5 MINUTES","AFTER LYING DOWN FOR 5 MINUTES",815,815,815],[524,"CDISCPILOT01","701","1180","STANDING","STANDING","STANDING","93","","74","126","","","mmHg","","BEATS/MIN","mmHg","","","","","","","","","","WEEK 2","25-FEB-2013","25-FEB-2013","","25-FEB-2013","25-FEB-2013","","","AFTER STANDING FOR 1 MINUTE","AFTER STANDING FOR 1 MINUTE","AFTER STANDING FOR 1 MINUTE",816,816,816],[525,"CDISCPILOT01","701","1180","STANDING","STANDING","STANDING","97","","74","134","","","mmHg","","BEATS/MIN","mmHg","","","","","","","","","","WEEK 2","25-FEB-2013","25-FEB-2013","","25-FEB-2013","25-FEB-2013","","","AFTER STANDING FOR 3 MINUTES","AFTER STANDING FOR 3 MINUTES","AFTER STANDING FOR 3 MINUTES",817,817,817],[526,"CDISCPILOT01","701","1180","SUPINE","SUPINE","SUPINE","79","","67","124","097.9","197.0","mmHg","","BEATS/MIN","mmHg","F","LB","","","","","","","ORAL CAVITY","WEEK 4","11-MAR-2013","11-MAR-2013","","11-MAR-2013","11-MAR-2013","11-MAR-2013","11-MAR-2013","AFTER LYING DOWN FOR 5 MINUTES","AFTER LYING DOWN FOR 5 MINUTES","AFTER LYING DOWN FOR 5 MINUTES",815,815,815],[527,"CDISCPILOT01","701","1180","STANDING","STANDING","STANDING","83","","81","115","","","mmHg","","BEATS/MIN","mmHg","","","","","","","","","","WEEK 4","11-MAR-2013","11-MAR-2013","","11-MAR-2013","11-MAR-2013","","","AFTER STANDING FOR 1 MINUTE","AFTER STANDING FOR 1 MINUTE","AFTER STANDING FOR 1 MINUTE",816,816,816],[528,"CDISCPILOT01","701","1180","STANDING","STANDING","STANDING","83","","71","129","","","mmHg","","BEATS/MIN","mmHg","","","","","","","","","","WEEK 4","11-MAR-2013","11-MAR-2013","","11-MAR-2013","11-MAR-2013","","","AFTER STANDING FOR 3 MINUTES","AFTER STANDING FOR 3 MINUTES","AFTER STANDING FOR 3 MINUTES",817,817,817],[529,"CDISCPILOT01","701","1180","SUPINE","SUPINE","SUPINE","86","","61","120","098.9","","mmHg","","BEATS/MIN","mmHg","F","","","","","","","","ORAL CAVITY","AMBUL ECG REMOVAL","13-MAR-2013","13-MAR-2013","","13-MAR-2013","13-MAR-2013","13-MAR-2013","","AFTER LYING DOWN FOR 5 MINUTES","AFTER LYING DOWN FOR 5 MINUTES","AFTER LYING DOWN FOR 5 MINUTES",815,815,815],[530,"CDISCPILOT01","701","1180","STANDING","STANDING","STANDING","84","","72","122","","","mmHg","","BEATS/MIN","mmHg","","","","","","","","","","AMBUL ECG REMOVAL","13-MAR-2013","13-MAR-2013","","13-MAR-2013","13-MAR-2013","","","AFTER STANDING FOR 1 MINUTE","AFTER STANDING FOR 1 MINUTE","AFTER STANDING FOR 1 MINUTE",816,816,816],[531,"CDISCPILOT01","701","1180","STANDING","STANDING","STANDING","84","","70","115","","","mmHg","","BEATS/MIN","mmHg","","","","","","","","","","AMBUL ECG REMOVAL","13-MAR-2013","13-MAR-2013","","13-MAR-2013","13-MAR-2013","","","AFTER STANDING FOR 3 MINUTES","AFTER STANDING FOR 3 MINUTES","AFTER STANDING FOR 3 MINUTES",817,817,817],[532,"CDISCPILOT01","701","1180","SUPINE","SUPINE","SUPINE","84","","58","138","99.2","199.0","mmHg","","BEATS/MIN","mmHg","F","LB","","","","","","","ORAL CAVITY","WEEK 6","23-MAR-2013","23-MAR-2013","","23-MAR-2013","23-MAR-2013","23-MAR-2013","23-MAR-2013","AFTER LYING DOWN FOR 5 MINUTES","AFTER LYING DOWN FOR 5 MINUTES","AFTER LYING DOWN FOR 5 MINUTES",815,815,815],[533,"CDISCPILOT01","701","1180","STANDING","STANDING","STANDING","85","","63","130","","","mmHg","","BEATS/MIN","mmHg","","","","","","","","","","WEEK 6","23-MAR-2013","23-MAR-2013","","23-MAR-2013","23-MAR-2013","","","AFTER STANDING FOR 1 MINUTE","AFTER STANDING FOR 1 MINUTE","AFTER STANDING FOR 1 MINUTE",816,816,816],[534,"CDISCPILOT01","701","1180","STANDING","STANDING","STANDING","81","","65","131","","","mmHg","","BEATS/MIN","mmHg","","","","","","","","","","WEEK 6","23-MAR-2013","23-MAR-2013","","23-MAR-2013","23-MAR-2013","","","AFTER STANDING FOR 3 MINUTES","AFTER STANDING FOR 3 MINUTES","AFTER STANDING FOR 3 MINUTES",817,817,817],[535,"CDISCPILOT01","701","1181","SUPINE","SUPINE","SUPINE","59","061.0","72","137","097.9","149.0","mmHg","IN","BEATS/MIN","mmHg","F","LB","","","","","","","ORAL CAVITY","SCREENING 1","26-NOV-2013","26-NOV-2013","26-NOV-2013","26-NOV-2013","26-NOV-2013","26-NOV-2013","26-NOV-2013","AFTER LYING DOWN FOR 5 MINUTES","AFTER LYING DOWN FOR 5 MINUTES","AFTER LYING DOWN FOR 5 MINUTES",815,815,815],[536,"CDISCPILOT01","701","1181","STANDING","STANDING","STANDING","56","","81","113","","","mmHg","","BEATS/MIN","mmHg","","","","","","","","","","SCREENING 1","26-NOV-2013","26-NOV-2013","","26-NOV-2013","26-NOV-2013","","","AFTER STANDING FOR 1 MINUTE","AFTER STANDING FOR 1 MINUTE","AFTER STANDING FOR 1 MINUTE",816,816,816],[537,"CDISCPILOT01","701","1181","STANDING","STANDING","STANDING","60","","79","136","","","mmHg","","BEATS/MIN","mmHg","","","","","","","","","","SCREENING 1","26-NOV-2013","26-NOV-2013","","26-NOV-2013","26-NOV-2013","","","AFTER STANDING FOR 3 MINUTES","AFTER STANDING FOR 3 MINUTES","AFTER STANDING FOR 3 MINUTES",817,817,817],[538,"CDISCPILOT01","701","1181","SUPINE","SUPINE","SUPINE","61","","77","142","096.6","","mmHg","","BEATS/MIN","mmHg","F","","","","","","","","ORAL CAVITY","SCREENING 2","03-DEC-2013","03-DEC-2013","","03-DEC-2013","03-DEC-2013","03-DEC-2013","","AFTER LYING DOWN FOR 5 MINUTES","AFTER LYING DOWN FOR 5 MINUTES","AFTER LYING DOWN FOR 5 MINUTES",815,815,815],[539,"CDISCPILOT01","701","1181","STANDING","STANDING","STANDING","63","","84","128","","","mmHg","","BEATS/MIN","mmHg","","","","","","","","","","SCREENING 2","03-DEC-2013","03-DEC-2013","","03-DEC-2013","03-DEC-2013","","","AFTER STANDING FOR 1 MINUTE","AFTER STANDING FOR 1 MINUTE","AFTER STANDING FOR 1 MINUTE",816,816,816],[540,"CDISCPILOT01","701","1181","STANDING","STANDING","STANDING","57","","86","130","","","mmHg","","BEATS/MIN","mmHg","","","","","","","","","","SCREENING 2","03-DEC-2013","03-DEC-2013","","03-DEC-2013","03-DEC-2013","","","AFTER STANDING FOR 3 MINUTES","AFTER STANDING FOR 3 MINUTES","AFTER STANDING FOR 3 MINUTES",817,817,817],[541,"CDISCPILOT01","701","1181","SUPINE","SUPINE","SUPINE","71","","74","146","097.7","147.0","mmHg","","BEATS/MIN","mmHg","F","LB","","","","","","","ORAL CAVITY","BASELINE","05-DEC-2013","05-DEC-2013","","05-DEC-2013","05-DEC-2013","05-DEC-2013","05-DEC-2013","AFTER LYING DOWN FOR 5 MINUTES","AFTER LYING DOWN FOR 5 MINUTES","AFTER LYING DOWN FOR 5 MINUTES",815,815,815],[542,"CDISCPILOT01","701","1181","STANDING","STANDING","STANDING","64","","82","130","","","mmHg","","BEATS/MIN","mmHg","","","","","","","","","","BASELINE","05-DEC-2013","05-DEC-2013","","05-DEC-2013","05-DEC-2013","","","AFTER STANDING FOR 1 MINUTE","AFTER STANDING FOR 1 MINUTE","AFTER STANDING FOR 1 MINUTE",816,816,816],[543,"CDISCPILOT01","701","1181","STANDING","STANDING","STANDING","66","","89","129","","","mmHg","","BEATS/MIN","mmHg","","","","","","","","","","BASELINE","05-DEC-2013","05-DEC-2013","","05-DEC-2013","05-DEC-2013","","","AFTER STANDING FOR 3 MINUTES","AFTER STANDING FOR 3 MINUTES","AFTER STANDING FOR 3 MINUTES",817,817,817],[544,"CDISCPILOT01","701","1181","SUPINE","SUPINE","SUPINE","64","","68","146","095.2","146.0","mmHg","","BEATS/MIN","mmHg","F","LB","","","","","","","ORAL CAVITY","WEEK 2","12-DEC-2013","12-DEC-2013","","12-DEC-2013","12-DEC-2013","12-DEC-2013","12-DEC-2013","AFTER LYING DOWN FOR 5 MINUTES","AFTER LYING DOWN FOR 5 MINUTES","AFTER LYING DOWN FOR 5 MINUTES",815,815,815],[545,"CDISCPILOT01","701","1181","STANDING","STANDING","STANDING","61","","74","139","","","mmHg","","BEATS/MIN","mmHg","","","","","","","","","","WEEK 2","12-DEC-2013","12-DEC-2013","","12-DEC-2013","12-DEC-2013","","","AFTER STANDING FOR 1 MINUTE","AFTER STANDING FOR 1 MINUTE","AFTER STANDING FOR 1 MINUTE",816,816,816],[546,"CDISCPILOT01","701","1181","STANDING","STANDING","STANDING","71","","79","146","","","mmHg","","BEATS/MIN","mmHg","","","","","","","","","","WEEK 2","12-DEC-2013","12-DEC-2013","","12-DEC-2013","12-DEC-2013","","","AFTER STANDING FOR 3 MINUTES","AFTER STANDING FOR 3 MINUTES","AFTER STANDING FOR 3 MINUTES",817,817,817],[547,"CDISCPILOT01","701","1181","SUPINE","SUPINE","SUPINE","52","","88","137","97.0","","mmHg","","BEATS/MIN","mmHg","F","","","","","","","","ORAL CAVITY","RETRIEVAL","23-MAY-2014","23-MAY-2014","","23-MAY-2014","23-MAY-2014","23-MAY-2014","","AFTER LYING DOWN FOR 5 MINUTES","AFTER LYING DOWN FOR 5 MINUTES","AFTER LYING DOWN FOR 5 MINUTES",815,815,815],[548,"CDISCPILOT01","701","1181","STANDING","STANDING","STANDING","47","","100","113","","","mmHg","","BEATS/MIN","mmHg","","","","","","","","","","RETRIEVAL","23-MAY-2014","23-MAY-2014","","23-MAY-2014","23-MAY-2014","","","AFTER STANDING FOR 1 MINUTE","AFTER STANDING FOR 1 MINUTE","AFTER STANDING FOR 1 MINUTE",816,816,816],[549,"CDISCPILOT01","701","1181","STANDING","STANDING","STANDING","54","","98","120","","","mmHg","","BEATS/MIN","mmHg","","","","","","","","","","RETRIEVAL","23-MAY-2014","23-MAY-2014","","23-MAY-2014","23-MAY-2014","","","AFTER STANDING FOR 3 MINUTES","AFTER STANDING FOR 3 MINUTES","AFTER STANDING FOR 3 MINUTES",817,817,817],[550,"CDISCPILOT01","701","1188","SUPINE","SUPINE","SUPINE","72","70.0","50","139","97.4","226.0","mmHg","IN","BEATS/MIN","mmHg","F","LB","","","","","","","ORAL CAVITY","SCREENING 1","03-FEB-2013","03-FEB-2013","03-FEB-2013","03-FEB-2013","03-FEB-2013","03-FEB-2013","03-FEB-2013","AFTER LYING DOWN FOR 5 MINUTES","AFTER LYING DOWN FOR 5 MINUTES","AFTER LYING DOWN FOR 5 MINUTES",815,815,815],[551,"CDISCPILOT01","701","1188","STANDING","STANDING","STANDING","67","","58","145","","","mmHg","","BEATS/MIN","mmHg","","","","","","","","","","SCREENING 1","03-FEB-2013","03-FEB-2013","","03-FEB-2013","03-FEB-2013","","","AFTER STANDING FOR 1 MINUTE","AFTER STANDING FOR 1 MINUTE","AFTER STANDING FOR 1 MINUTE",816,816,816],[552,"CDISCPILOT01","701","1188","STANDING","STANDING","STANDING","69","","56","131","","","mmHg","","BEATS/MIN","mmHg","","","","","","","","","","SCREENING 1","03-FEB-2013","03-FEB-2013","","03-FEB-2013","03-FEB-2013","","","AFTER STANDING FOR 3 MINUTES","AFTER STANDING FOR 3 MINUTES","AFTER STANDING FOR 3 MINUTES",817,817,817],[553,"CDISCPILOT01","701","1188","SUPINE","SUPINE","SUPINE","71","","60","143","98.7","","mmHg","","BEATS/MIN","mmHg","F","","","","","","","","ORAL CAVITY","SCREENING 2","10-FEB-2013","10-FEB-2013","","10-FEB-2013","10-FEB-2013","10-FEB-2013","","AFTER LYING DOWN FOR 5 MINUTES","AFTER LYING DOWN FOR 5 MINUTES","AFTER LYING DOWN FOR 5 MINUTES",815,815,815],[554,"CDISCPILOT01","701","1188","STANDING","STANDING","STANDING","72","","67","123","","","mmHg","","BEATS/MIN","mmHg","","","","","","","","","","SCREENING 2","10-FEB-2013","10-FEB-2013","","10-FEB-2013","10-FEB-2013","","","AFTER STANDING FOR 1 MINUTE","AFTER STANDING FOR 1 MINUTE","AFTER STANDING FOR 1 MINUTE",816,816,816],[555,"CDISCPILOT01","701","1188","STANDING","STANDING","STANDING","72","","66","122","","","mmHg","","BEATS/MIN","mmHg","","","","","","","","","","SCREENING 2","10-FEB-2013","10-FEB-2013","","10-FEB-2013","10-FEB-2013","","","AFTER STANDING FOR 3 MINUTES","AFTER STANDING FOR 3 MINUTES","AFTER STANDING FOR 3 MINUTES",817,817,817],[556,"CDISCPILOT01","701","1188","SUPINE","SUPINE","SUPINE","78","","57","135","97.3","223.0","mmHg","","BEATS/MIN","mmHg","F","LB","","","","","","","ORAL CAVITY","BASELINE","15-FEB-2013","15-FEB-2013","","15-FEB-2013","15-FEB-2013","15-FEB-2013","15-FEB-2013","AFTER LYING DOWN FOR 5 MINUTES","AFTER LYING DOWN FOR 5 MINUTES","AFTER LYING DOWN FOR 5 MINUTES",815,815,815],[557,"CDISCPILOT01","701","1188","STANDING","STANDING","STANDING","66","","65","124","","","mmHg","","BEATS/MIN","mmHg","","","","","","","","","","BASELINE","15-FEB-2013","15-FEB-2013","","15-FEB-2013","15-FEB-2013","","","AFTER STANDING FOR 1 MINUTE","AFTER STANDING FOR 1 MINUTE","AFTER STANDING FOR 1 MINUTE",816,816,816],[558,"CDISCPILOT01","701","1188","STANDING","STANDING","STANDING","68","","56","130","","","mmHg","","BEATS/MIN","mmHg","","","","","","","","","","BASELINE","15-FEB-2013","15-FEB-2013","","15-FEB-2013","15-FEB-2013","","","AFTER STANDING FOR 3 MINUTES","AFTER STANDING FOR 3 MINUTES","AFTER STANDING FOR 3 MINUTES",817,817,817],[559,"CDISCPILOT01","701","1188","SUPINE","SUPINE","SUPINE","70","","66","140","097.5","","mmHg","","BEATS/MIN","mmHg","F","","","","","","","","ORAL CAVITY","AMBUL ECG PLACEMENT","01-MAR-2013","01-MAR-2013","","01-MAR-2013","01-MAR-2013","01-MAR-2013","","AFTER LYING DOWN FOR 5 MINUTES","AFTER LYING DOWN FOR 5 MINUTES","AFTER LYING DOWN FOR 5 MINUTES",815,815,815],[560,"CDISCPILOT01","701","1188","STANDING","STANDING","STANDING","73","","76","123","","","mmHg","","BEATS/MIN","mmHg","","","","","","","","","","AMBUL ECG PLACEMENT","01-MAR-2013","01-MAR-2013","","01-MAR-2013","01-MAR-2013","","","AFTER STANDING FOR 1 MINUTE","AFTER STANDING FOR 1 MINUTE","AFTER STANDING FOR 1 MINUTE",816,816,816],[561,"CDISCPILOT01","701","1188","STANDING","STANDING","STANDING","73","","70","139","","","mmHg","","BEATS/MIN","mmHg","","","","","","","","","","AMBUL ECG PLACEMENT","01-MAR-2013","01-MAR-2013","","01-MAR-2013","01-MAR-2013","","","AFTER STANDING FOR 3 MINUTES","AFTER STANDING FOR 3 MINUTES","AFTER STANDING FOR 3 MINUTES",817,817,817],[562,"CDISCPILOT01","701","1188","SUPINE","SUPINE","SUPINE","87","","61","147","097.3","224.0","mmHg","","BEATS/MIN","mmHg","F","LB","","","","","","","ORAL CAVITY","WEEK 2","02-MAR-2013","02-MAR-2013","","02-MAR-2013","02-MAR-2013","02-MAR-2013","02-MAR-2013","AFTER LYING DOWN FOR 5 MINUTES","AFTER LYING DOWN FOR 5 MINUTES","AFTER LYING DOWN FOR 5 MINUTES",815,815,815],[563,"CDISCPILOT01","701","1188","STANDING","STANDING","STANDING","73","","64","139","","","mmHg","","BEATS/MIN","mmHg","","","","","","","","","","WEEK 2","02-MAR-2013","02-MAR-2013","","02-MAR-2013","02-MAR-2013","","","AFTER STANDING FOR 1 MINUTE","AFTER STANDING FOR 1 MINUTE","AFTER STANDING FOR 1 MINUTE",816,816,816],[564,"CDISCPILOT01","701","1188","STANDING","STANDING","STANDING","77","","67","139","","","mmHg","","BEATS/MIN","mmHg","","","","","","","","","","WEEK 2","02-MAR-2013","02-MAR-2013","","02-MAR-2013","02-MAR-2013","","","AFTER STANDING FOR 3 MINUTES","AFTER STANDING FOR 3 MINUTES","AFTER STANDING FOR 3 MINUTES",817,817,817],[565,"CDISCPILOT01","701","1188","SUPINE","SUPINE","SUPINE","80","","63","145","96.8","225.0","mmHg","","BEATS/MIN","mmHg","F","LB","","","","","","","ORAL CAVITY","WEEK 4","16-MAR-2013","16-MAR-2013","","16-MAR-2013","16-MAR-2013","16-MAR-2013","16-MAR-2013","AFTER LYING DOWN FOR 5 MINUTES","AFTER LYING DOWN FOR 5 MINUTES","AFTER LYING DOWN FOR 5 MINUTES",815,815,815],[566,"CDISCPILOT01","701","1188","STANDING","STANDING","STANDING","78","","68","143","","","mmHg","","BEATS/MIN","mmHg","","","","","","","","","","WEEK 4","16-MAR-2013","16-MAR-2013","","16-MAR-2013","16-MAR-2013","","","AFTER STANDING FOR 1 MINUTE","AFTER STANDING FOR 1 MINUTE","AFTER STANDING FOR 1 MINUTE",816,816,816],[567,"CDISCPILOT01","701","1188","STANDING","STANDING","STANDING","77","","68","146","","","mmHg","","BEATS/MIN","mmHg","","","","","","","","","","WEEK 4","16-MAR-2013","16-MAR-2013","","16-MAR-2013","16-M