STUDYID,SITEID,SUBJID,VISIT,VISDAT,IEYN,IEDAT,IECAT,IETESTCD,IETEST,IEORRES
CDISCPILOT01,703,1175,WEEK 2,31-DEC-2013,Yes,31-DEC-2013,EXCLUSION,EXCL16,Evidence from ECG recording at screening of any listed condition.,Yes
CDISCPILOT01,705,1382,WEEK 2,13-MAY-2013,Yes,13-MAY-2013,EXCLUSION,EXCL25,"A history within the last 5 years of a primary or recurrent malignant disease (with exceptions, see list in protocol).",Yes
CDISCPILOT01,708,1372,WEEK 2,10-MAY-2013,Yes,10-MAY-2013,EXCLUSION,EXCL16,Evidence from ECG recording at screening of any listed condition.,Yes
