STUDYID,SITEID,SUBJID,EDLEVEL_SCCAT,EDLEVEL_SCTEST,EDLEVEL_SCORRES,EDLEVEL_SCORRESU,SCDAT,VISIT,VISDAT
CDISCPILOT01,701,1015,EDUCATION,EDUCATION LEVEL,16,YEARS,26-DEC-2013,SCREENING 1,26-DEC-2013
CDISCPILOT01,701,1023,EDUCATION,EDUCATION LEVEL,14,YEARS,22-JUL-2012,SCREENING 1,22-JUL-2012
CDISCPILOT01,701,1028,EDUCATION,EDUCATION LEVEL,16,YEARS,11-JUL-2013,SCREENING 1,11-JUL-2013
CDISCPILOT01,701,1033,EDUCATION,EDUCATION LEVEL,12,YEARS,10-MAR-2014,SCREENING 1,10-MAR-2014
CDISCPILOT01,701,1034,EDUCATION,EDUCATION LEVEL,9,YEARS,24-JUN-2014,SCREENING 1,24-JUN-2014
CDISCPILOT01,701,1047,EDUCATION,EDUCATION LEVEL,8,YEARS,22-JAN-2013,SCREENING 1,22-JAN-2013
CDISCPILOT01,701,1097,EDUCATION,EDUCATION LEVEL,18,YEARS,23-DEC-2013,SCREENING 1,23-DEC-2013
CDISCPILOT01,701,1111,EDUCATION,EDUCATION LEVEL,22,YEARS,25-AUG-2012,SCREENING 1,25-AUG-2012
CDISCPILOT01,701,1115,EDUCATION,EDUCATION LEVEL,12,YEARS,23-NOV-2012,SCREENING 1,23-NOV-2012
CDISCPILOT01,701,1118,EDUCATION,EDUCATION LEVEL,14,YEARS,27-FEB-2014,SCREENING 1,27-FEB-2014
CDISCPILOT01,701,1130,EDUCATION,EDUCATION LEVEL,12,YEARS,09-FEB-2014,SCREENING 1,09-FEB-2014
CDISCPILOT01,701,1133,EDUCATION,EDUCATION LEVEL,10,YEARS,23-OCT-2012,SCREENING 1,23-OCT-2012
CDISCPILOT01,701,1146,EDUCATION,EDUCATION LEVEL,16,YEARS,07-MAY-2013,SCREENING 1,07-MAY-2013
CDISCPILOT01,701,1148,EDUCATION,EDUCATION LEVEL,15,YEARS,14-AUG-2013,SCREENING 1,14-AUG-2013
CDISCPILOT01,701,1153,EDUCATION,EDUCATION LEVEL,6,YEARS,06-SEP-2013,SCREENING 1,06-SEP-2013
CDISCPILOT01,701,1180,EDUCATION,EDUCATION LEVEL,16,YEARS,28-JAN-2013,SCREENING 1,28-JAN-2013
CDISCPILOT01,701,1181,EDUCATION,EDUCATION LEVEL,15,YEARS,26-NOV-2013,SCREENING 1,26-NOV-2013
CDISCPILOT01,701,1188,EDUCATION,EDUCATION LEVEL,16,YEARS,03-FEB-2013,SCREENING 1,03-FEB-2013
CDISCPILOT01,701,1192,EDUCATION,EDUCATION LEVEL,12,YEARS,08-JUL-2012,SCREENING 1,08-JUL-2012
CDISCPILOT01,701,1203,EDUCATION,EDUCATION LEVEL,13,YEARS,25-JAN-2013,SCREENING 1,25-JAN-2013
CDISCPILOT01,701,1211,EDUCATION,EDUCATION LEVEL,12,YEARS,30-OCT-2012,SCREENING 1,30-OCT-2012
CDISCPILOT01,701,1234,EDUCATION,EDUCATION LEVEL,18,YEARS,20-MAR-2013,SCREENING 1,20-MAR-2013
CDISCPILOT01,701,1239,EDUCATION,EDUCATION LEVEL,11,YEARS,28-DEC-2013,SCREENING 1,28-DEC-2013
CDISCPILOT01,701,1275,EDUCATION,EDUCATION LEVEL,12,YEARS,25-JAN-2014,SCREENING 1,25-JAN-2014
CDISCPILOT01,701,1287,EDUCATION,EDUCATION LEVEL,14,YEARS,17-JAN-2014,SCREENING 1,17-JAN-2014
CDISCPILOT01,701,1294,EDUCATION,EDUCATION LEVEL,16,YEARS,17-MAR-2013,SCREENING 1,17-MAR-2013
CDISCPILOT01,701,1302,EDUCATION,EDUCATION LEVEL,15,YEARS,20-AUG-2013,SCREENING 1,20-AUG-2013
CDISCPILOT01,701,1317,EDUCATION,EDUCATION LEVEL,20,YEARS,10-MAY-2014,SCREENING 1,10-MAY-2014
CDISCPILOT01,701,1324,EDUCATION,EDUCATION LEVEL,18,YEARS,16-SEP-2012,SCREENING 1,16-SEP-2012
CDISCPILOT01,701,1341,EDUCATION,EDUCATION LEVEL,24,YEARS,22-DEC-2012,SCREENING 1,22-DEC-2012
CDISCPILOT01,701,1345,EDUCATION,EDUCATION LEVEL,15,YEARS,01-OCT-2013,SCREENING 1,01-OCT-2013
CDISCPILOT01,701,1360,EDUCATION,EDUCATION LEVEL,10,YEARS,24-JUL-2013,SCREENING 1,24-JUL-2013
CDISCPILOT01,701,1363,EDUCATION,EDUCATION LEVEL,13,YEARS,20-MAY-2013,SCREENING 1,20-MAY-2013
CDISCPILOT01,701,1383,EDUCATION,EDUCATION LEVEL,12,YEARS,22-JAN-2013,SCREENING 1,22-JAN-2013
CDISCPILOT01,701,1387,EDUCATION,EDUCATION LEVEL,12,YEARS,23-FEB-2014,SCREENING 1,23-FEB-2014
CDISCPILOT01,701,1392,EDUCATION,EDUCATION LEVEL,16,YEARS,17-OCT-2012,SCREENING 1,17-OCT-2012
CDISCPILOT01,701,1415,EDUCATION,EDUCATION LEVEL,10,YEARS,15-SEP-2013,SCREENING 1,15-SEP-2013
CDISCPILOT01,701,1429,EDUCATION,EDUCATION LEVEL,12,YEARS,25-FEB-2013,SCREENING 1,25-FEB-2013
CDISCPILOT01,701,1440,EDUCATION,EDUCATION LEVEL,18,YEARS,24-JUL-2013,SCREENING 1,24-JUL-2013
CDISCPILOT01,701,1442,EDUCATION,EDUCATION LEVEL,12,YEARS,17-OCT-2013,SCREENING 1,17-OCT-2013
CDISCPILOT01,701,1444,EDUCATION,EDUCATION LEVEL,14,YEARS,31-DEC-2012,SCREENING 1,31-DEC-2012
CDISCPILOT01,702,1082,EDUCATION,EDUCATION LEVEL,18,YEARS,03-JUL-2013,SCREENING 1,03-JUL-2013
CDISCPILOT01,703,1042,EDUCATION,EDUCATION LEVEL,12,YEARS,23-FEB-2013,SCREENING 1,23-FEB-2013
CDISCPILOT01,703,1076,EDUCATION,EDUCATION LEVEL,10,YEARS,17-OCT-2013,SCREENING 1,17-OCT-2013
CDISCPILOT01,703,1086,EDUCATION,EDUCATION LEVEL,17,YEARS,22-AUG-2012,SCREENING 1,22-AUG-2012
CDISCPILOT01,703,1096,EDUCATION,EDUCATION LEVEL,6,YEARS,19-DEC-2012,SCREENING 1,19-DEC-2012
CDISCPILOT01,703,1100,EDUCATION,EDUCATION LEVEL,8,YEARS,28-FEB-2013,SCREENING 1,28-FEB-2013
CDISCPILOT01,703,1119,EDUCATION,EDUCATION LEVEL,16,YEARS,02-FEB-2013,SCREENING 1,02-FEB-2013
CDISCPILOT01,703,1175,EDUCATION,EDUCATION LEVEL,16,YEARS,13-DEC-2013,SCREENING 1,13-DEC-2013
CDISCPILOT01,703,1182,EDUCATION,EDUCATION LEVEL,12,YEARS,08-OCT-2013,SCREENING 1,08-OCT-2013
CDISCPILOT01,703,1197,EDUCATION,EDUCATION LEVEL,5,YEARS,01-JUN-2013,SCREENING 1,01-JUN-2013
CDISCPILOT01,703,1210,EDUCATION,EDUCATION LEVEL,12,YEARS,08-MAR-2013,SCREENING 1,08-MAR-2013
CDISCPILOT01,703,1258,EDUCATION,EDUCATION LEVEL,12,YEARS,10-JUL-2012,SCREENING 1,10-JUL-2012
CDISCPILOT01,703,1279,EDUCATION,EDUCATION LEVEL,12,YEARS,27-APR-2013,SCREENING 1,27-APR-2013
CDISCPILOT01,703,1295,EDUCATION,EDUCATION LEVEL,8,YEARS,24-OCT-2013,SCREENING 1,24-OCT-2013
CDISCPILOT01,703,1299,EDUCATION,EDUCATION LEVEL,12,YEARS,07-SEP-2012,SCREENING 1,07-SEP-2012
CDISCPILOT01,703,1335,EDUCATION,EDUCATION LEVEL,11,YEARS,28-FEB-2014,SCREENING 1,28-FEB-2014
CDISCPILOT01,703,1379,EDUCATION,EDUCATION LEVEL,7,YEARS,12-SEP-2013,SCREENING 1,12-SEP-2013
CDISCPILOT01,703,1403,EDUCATION,EDUCATION LEVEL,12,YEARS,05-DEC-2012,SCREENING 1,05-DEC-2012
CDISCPILOT01,703,1439,EDUCATION,EDUCATION LEVEL,12,YEARS,04-MAR-2014,SCREENING 1,04-MAR-2014
CDISCPILOT01,704,1008,EDUCATION,EDUCATION LEVEL,12,YEARS,06-JAN-2013,SCREENING 1,06-JAN-2013
CDISCPILOT01,704,1009,EDUCATION,EDUCATION LEVEL,16,YEARS,20-AUG-2013,SCREENING 1,20-AUG-2013
CDISCPILOT01,704,1010,EDUCATION,EDUCATION LEVEL,14,YEARS,08-FEB-2014,SCREENING 1,08-FEB-2014
CDISCPILOT01,704,1017,EDUCATION,EDUCATION LEVEL,12,YEARS,20-SEP-2013,SCREENING 1,20-SEP-2013
CDISCPILOT01,704,1025,EDUCATION,EDUCATION LEVEL,18,YEARS,18-SEP-2013,SCREENING 1,18-SEP-2013
CDISCPILOT01,704,1065,EDUCATION,EDUCATION LEVEL,12,YEARS,17-OCT-2013,SCREENING 1,17-OCT-2013
CDISCPILOT01,704,1074,EDUCATION,EDUCATION LEVEL,16,YEARS,19-JAN-2014,SCREENING 1,19-JAN-2014
CDISCPILOT01,704,1093,EDUCATION,EDUCATION LEVEL,12,YEARS,22-FEB-2013,SCREENING 1,22-FEB-2013
CDISCPILOT01,704,1114,EDUCATION,EDUCATION LEVEL,8,YEARS,09-JAN-2013,SCREENING 1,09-JAN-2013
CDISCPILOT01,704,1120,EDUCATION,EDUCATION LEVEL,13,YEARS,18-NOV-2013,SCREENING 1,18-NOV-2013
CDISCPILOT01,704,1127,EDUCATION,EDUCATION LEVEL,12,YEARS,16-SEP-2013,SCREENING 1,16-SEP-2013
CDISCPILOT01,704,1135,EDUCATION,EDUCATION LEVEL,14,YEARS,23-OCT-2013,SCREENING 1,23-OCT-2013
CDISCPILOT01,704,1164,EDUCATION,EDUCATION LEVEL,10,YEARS,11-SEP-2012,SCREENING 1,11-SEP-2012
CDISCPILOT01,704,1218,EDUCATION,EDUCATION LEVEL,12,YEARS,11-NOV-2012,SCREENING 1,11-NOV-2012
CDISCPILOT01,704,1233,EDUCATION,EDUCATION LEVEL,16,YEARS,08-MAR-2013,SCREENING 1,08-MAR-2013
CDISCPILOT01,704,1241,EDUCATION,EDUCATION LEVEL,14,YEARS,14-AUG-2013,SCREENING 1,14-AUG-2013
CDISCPILOT01,704,1260,EDUCATION,EDUCATION LEVEL,16,YEARS,23-AUG-2012,SCREENING 1,23-AUG-2012
CDISCPILOT01,704,1266,EDUCATION,EDUCATION LEVEL,12,YEARS,05-OCT-2013,SCREENING 1,05-OCT-2013
CDISCPILOT01,704,1323,EDUCATION,EDUCATION LEVEL,16,YEARS,13-JUN-2013,SCREENING 1,13-JUN-2013
CDISCPILOT01,704,1325,EDUCATION,EDUCATION LEVEL,16,YEARS,16-APR-2014,SCREENING 1,16-APR-2014
CDISCPILOT01,704,1332,EDUCATION,EDUCATION LEVEL,9,YEARS,24-NOV-2013,SCREENING 1,24-NOV-2013
CDISCPILOT01,704,1351,EDUCATION,EDUCATION LEVEL,12,YEARS,26-SEP-2013,SCREENING 1,26-SEP-2013
CDISCPILOT01,704,1388,EDUCATION,EDUCATION LEVEL,11,YEARS,28-NOV-2012,SCREENING 1,28-NOV-2012
CDISCPILOT01,704,1435,EDUCATION,EDUCATION LEVEL,16,YEARS,01-NOV-2012,SCREENING 1,01-NOV-2012
CDISCPILOT01,704,1445,EDUCATION,EDUCATION LEVEL,12,YEARS,01-MAY-2014,SCREENING 1,01-MAY-2014
CDISCPILOT01,705,1018,EDUCATION,EDUCATION LEVEL,6,YEARS,30-JUN-2013,SCREENING 1,30-JUN-2013
CDISCPILOT01,705,1031,EDUCATION,EDUCATION LEVEL,16,YEARS,17-NOV-2013,SCREENING 1,17-NOV-2013
CDISCPILOT01,705,1059,EDUCATION,EDUCATION LEVEL,12,YEARS,02-AUG-2013,SCREENING 1,02-AUG-2013
CDISCPILOT01,705,1186,EDUCATION,EDUCATION LEVEL,12,YEARS,03-JAN-2014,SCREENING 1,03-JAN-2014
CDISCPILOT01,705,1199,EDUCATION,EDUCATION LEVEL,20,YEARS,11-SEP-2013,SCREENING 1,11-SEP-2013
CDISCPILOT01,705,1280,EDUCATION,EDUCATION LEVEL,12,YEARS,11-JAN-2014,SCREENING 1,11-JAN-2014
CDISCPILOT01,705,1281,EDUCATION,EDUCATION LEVEL,12,YEARS,26-NOV-2013,SCREENING 1,26-NOV-2013
CDISCPILOT01,705,1282,EDUCATION,EDUCATION LEVEL,12,YEARS,23-DEC-2012,SCREENING 1,23-DEC-2012
CDISCPILOT01,705,1292,EDUCATION,EDUCATION LEVEL,8,YEARS,11-OCT-2013,SCREENING 1,11-OCT-2013
CDISCPILOT01,705,1303,EDUCATION,EDUCATION LEVEL,12,YEARS,10-DEC-2013,SCREENING 1,10-DEC-2013
CDISCPILOT01,705,1310,EDUCATION,EDUCATION LEVEL,12,YEARS,26-OCT-2013,SCREENING 1,26-OCT-2013
CDISCPILOT01,705,1349,EDUCATION,EDUCATION LEVEL,10,YEARS,24-FEB-2013,SCREENING 1,24-FEB-2013
CDISCPILOT01,705,1377,EDUCATION,EDUCATION LEVEL,6,YEARS,29-DEC-2013,SCREENING 1,29-DEC-2013
CDISCPILOT01,705,1382,EDUCATION,EDUCATION LEVEL,12,YEARS,09-MAY-2013,SCREENING 1,09-MAY-2013
CDISCPILOT01,705,1393,EDUCATION,EDUCATION LEVEL,13,YEARS,02-SEP-2012,SCREENING 1,02-SEP-2012
CDISCPILOT01,705,1431,EDUCATION,EDUCATION LEVEL,12,YEARS,16-JUN-2013,SCREENING 1,16-JUN-2013
CDISCPILOT01,706,1041,EDUCATION,EDUCATION LEVEL,15,YEARS,21-DEC-2013,SCREENING 1,21-DEC-2013
CDISCPILOT01,706,1049,EDUCATION,EDUCATION LEVEL,11,YEARS,30-APR-2013,SCREENING 1,30-APR-2013
CDISCPILOT01,706,1384,EDUCATION,EDUCATION LEVEL,8,YEARS,25-AUG-2012,SCREENING 1,25-AUG-2012
CDISCPILOT01,707,1037,EDUCATION,EDUCATION LEVEL,14,YEARS,12-DEC-2013,SCREENING 1,12-DEC-2013
CDISCPILOT01,707,1206,EDUCATION,EDUCATION LEVEL,7,YEARS,20-OCT-2013,SCREENING 1,20-OCT-2013
CDISCPILOT01,708,1019,EDUCATION,EDUCATION LEVEL,18,YEARS,10-DEC-2013,SCREENING 1,10-DEC-2013
CDISCPILOT01,708,1032,EDUCATION,EDUCATION LEVEL,12,YEARS,02-FEB-2013,SCREENING 1,02-FEB-2013
CDISCPILOT01,708,1084,EDUCATION,EDUCATION LEVEL,12,YEARS,01-MAY-2013,SCREENING 1,01-MAY-2013
CDISCPILOT01,708,1087,EDUCATION,EDUCATION LEVEL,12,YEARS,06-OCT-2012,SCREENING 1,06-OCT-2012
CDISCPILOT01,708,1158,EDUCATION,EDUCATION LEVEL,8,YEARS,01-FEB-2014,SCREENING 1,01-FEB-2014
CDISCPILOT01,708,1171,EDUCATION,EDUCATION LEVEL,09,YEARS,25-NOV-2012,SCREENING 1,25-NOV-2012
CDISCPILOT01,708,1178,EDUCATION,EDUCATION LEVEL,08,YEARS,13-DEC-2013,SCREENING 1,13-DEC-2013
CDISCPILOT01,708,1213,EDUCATION,EDUCATION LEVEL,12,YEARS,01-FEB-2013,SCREENING 1,01-FEB-2013
CDISCPILOT01,708,1216,EDUCATION,EDUCATION LEVEL,12,YEARS,14-OCT-2012,SCREENING 1,14-OCT-2012
CDISCPILOT01,708,1236,EDUCATION,EDUCATION LEVEL,08,YEARS,08-SEP-2013,SCREENING 1,08-SEP-2013
CDISCPILOT01,708,1253,EDUCATION,EDUCATION LEVEL,12,YEARS,26-APR-2013,SCREENING 1,26-APR-2013
CDISCPILOT01,708,1272,EDUCATION,EDUCATION LEVEL,11,YEARS,22-JAN-2013,SCREENING 1,22-JAN-2013
CDISCPILOT01,708,1286,EDUCATION,EDUCATION LEVEL,12,YEARS,25-AUG-2013,SCREENING 1,25-AUG-2013
CDISCPILOT01,708,1296,EDUCATION,EDUCATION LEVEL,18,YEARS,07-JUN-2013,SCREENING 1,07-JUN-2013
CDISCPILOT01,708,1297,EDUCATION,EDUCATION LEVEL,13,YEARS,15-JAN-2013,SCREENING 1,15-JAN-2013
CDISCPILOT01,708,1316,EDUCATION,EDUCATION LEVEL,12,YEARS,15-AUG-2013,SCREENING 1,15-AUG-2013
CDISCPILOT01,708,1336,EDUCATION,EDUCATION LEVEL,18,YEARS,21-NOV-2012,SCREENING 1,21-NOV-2012
CDISCPILOT01,708,1342,EDUCATION,EDUCATION LEVEL,13,YEARS,21-DEC-2012,SCREENING 1,21-DEC-2012
CDISCPILOT01,708,1347,EDUCATION,EDUCATION LEVEL,12,YEARS,11-APR-2013,SCREENING 1,11-APR-2013
CDISCPILOT01,708,1348,EDUCATION,EDUCATION LEVEL,12,YEARS,28-JUL-2013,SCREENING 1,28-JUL-2013
CDISCPILOT01,708,1353,EDUCATION,EDUCATION LEVEL,16,YEARS,17-JUN-2013,SCREENING 1,17-JUN-2013
CDISCPILOT01,708,1372,EDUCATION,EDUCATION LEVEL,8,YEARS,03-APR-2013,SCREENING 1,03-APR-2013
CDISCPILOT01,708,1378,EDUCATION,EDUCATION LEVEL,13,YEARS,24-AUG-2013,SCREENING 1,24-AUG-2013
CDISCPILOT01,708,1406,EDUCATION,EDUCATION LEVEL,13,YEARS,06-DEC-2013,SCREENING 1,06-DEC-2013
CDISCPILOT01,708,1428,EDUCATION,EDUCATION LEVEL,8,YEARS,02-NOV-2013,SCREENING 1,02-NOV-2013
CDISCPILOT01,709,1001,EDUCATION,EDUCATION LEVEL,12,YEARS,20-SEP-2013,SCREENING 1,20-SEP-2013
CDISCPILOT01,709,1007,EDUCATION,EDUCATION LEVEL,21,YEARS,21-JUL-2012,SCREENING 1,21-JUL-2012
CDISCPILOT01,709,1020,EDUCATION,EDUCATION LEVEL,12,YEARS,22-NOV-2012,SCREENING 1,22-NOV-2012
CDISCPILOT01,709,1029,EDUCATION,EDUCATION LEVEL,20,YEARS,10-DEC-2012,SCREENING 1,10-DEC-2012
CDISCPILOT01,709,1081,EDUCATION,EDUCATION LEVEL,9,YEARS,09-JAN-2014,SCREENING 1,09-JAN-2014
CDISCPILOT01,709,1088,EDUCATION,EDUCATION LEVEL,16,YEARS,30-MAR-2014,SCREENING 1,30-MAR-2014
CDISCPILOT01,709,1099,EDUCATION,EDUCATION LEVEL,12,YEARS,14-OCT-2013,SCREENING 1,14-OCT-2013
CDISCPILOT01,709,1102,EDUCATION,EDUCATION LEVEL,14,YEARS,07-JAN-2013,SCREENING 1,07-JAN-2013
CDISCPILOT01,709,1168,EDUCATION,EDUCATION LEVEL,12,YEARS,25-JUL-2013,SCREENING 1,25-JUL-2013
CDISCPILOT01,709,1217,EDUCATION,EDUCATION LEVEL,6,YEARS,16-FEB-2013,SCREENING 1,16-FEB-2013
CDISCPILOT01,709,1238,EDUCATION,EDUCATION LEVEL,8,YEARS,02-MAY-2013,SCREENING 1,02-MAY-2013
CDISCPILOT01,709,1259,EDUCATION,EDUCATION LEVEL,18,YEARS,13-JAN-2013,SCREENING 1,13-JAN-2013
CDISCPILOT01,709,1285,EDUCATION,EDUCATION LEVEL,6,YEARS,17-MAR-2013,SCREENING 1,17-MAR-2013
CDISCPILOT01,709,1301,EDUCATION,EDUCATION LEVEL,10,YEARS,14-JUL-2013,SCREENING 1,14-JUL-2013
CDISCPILOT01,709,1306,EDUCATION,EDUCATION LEVEL,12,YEARS,19-JAN-2014,SCREENING 1,19-JAN-2014
CDISCPILOT01,709,1309,EDUCATION,EDUCATION LEVEL,16,YEARS,09-JUN-2013,SCREENING 1,09-JUN-2013
CDISCPILOT01,709,1312,EDUCATION,EDUCATION LEVEL,13,YEARS,13-APR-2014,SCREENING 1,13-APR-2014
CDISCPILOT01,709,1326,EDUCATION,EDUCATION LEVEL,16,YEARS,21-MAR-2013,SCREENING 1,21-MAR-2013
CDISCPILOT01,709,1329,EDUCATION,EDUCATION LEVEL,16,YEARS,01-AUG-2013,SCREENING 1,01-AUG-2013
CDISCPILOT01,709,1339,EDUCATION,EDUCATION LEVEL,16,YEARS,15-DEC-2012,SCREENING 1,15-DEC-2012
CDISCPILOT01,709,1424,EDUCATION,EDUCATION LEVEL,16,YEARS,15-FEB-2013,SCREENING 1,15-FEB-2013
CDISCPILOT01,710,1002,EDUCATION,EDUCATION LEVEL,12,YEARS,30-DEC-2013,SCREENING 1,30-DEC-2013
CDISCPILOT01,710,1006,EDUCATION,EDUCATION LEVEL,12,YEARS,27-JAN-2013,SCREENING 1,27-JAN-2013
CDISCPILOT01,710,1021,EDUCATION,EDUCATION LEVEL,8,YEARS,19-SEP-2013,SCREENING 1,19-SEP-2013
CDISCPILOT01,710,1027,EDUCATION,EDUCATION LEVEL,12,YEARS,03-FEB-2014,SCREENING 1,03-FEB-2014
CDISCPILOT01,710,1045,EDUCATION,EDUCATION LEVEL,12,YEARS,20-MAY-2013,SCREENING 1,20-MAY-2013
CDISCPILOT01,710,1053,EDUCATION,EDUCATION LEVEL,12,YEARS,15-DEC-2012,SCREENING 1,15-DEC-2012
CDISCPILOT01,710,1060,EDUCATION,EDUCATION LEVEL,16,YEARS,24-DEC-2012,SCREENING 1,24-DEC-2012
CDISCPILOT01,710,1070,EDUCATION,EDUCATION LEVEL,10,YEARS,28-AUG-2012,SCREENING 1,28-AUG-2012
CDISCPILOT01,710,1077,EDUCATION,EDUCATION LEVEL,12,YEARS,03-NOV-2013,SCREENING 1,03-NOV-2013
CDISCPILOT01,710,1078,EDUCATION,EDUCATION LEVEL,12,YEARS,06-SEP-2013,SCREENING 1,06-SEP-2013
CDISCPILOT01,710,1083,EDUCATION,EDUCATION LEVEL,14,YEARS,09-JUL-2013,SCREENING 1,09-JUL-2013
CDISCPILOT01,710,1137,EDUCATION,EDUCATION LEVEL,16,YEARS,03-OCT-2013,SCREENING 1,03-OCT-2013
CDISCPILOT01,710,1142,EDUCATION,EDUCATION LEVEL,12,YEARS,12-SEP-2012,SCREENING 1,12-SEP-2012
CDISCPILOT01,710,1154,EDUCATION,EDUCATION LEVEL,3,YEARS,08-MAR-2014,SCREENING 1,08-MAR-2014
CDISCPILOT01,710,1166,EDUCATION,EDUCATION LEVEL,12,YEARS,10-NOV-2012,SCREENING 1,10-NOV-2012
CDISCPILOT01,710,1183,EDUCATION,EDUCATION LEVEL,8,YEARS,24-OCT-2013,SCREENING 1,24-OCT-2013
CDISCPILOT01,710,1187,EDUCATION,EDUCATION LEVEL,8,YEARS,26-OCT-2012,SCREENING 1,26-OCT-2012
CDISCPILOT01,710,1235,EDUCATION,EDUCATION LEVEL,16,YEARS,13-SEP-2012,SCREENING 1,13-SEP-2012
CDISCPILOT01,710,1249,EDUCATION,EDUCATION LEVEL,12,YEARS,19-DEC-2013,SCREENING 1,19-DEC-2013
CDISCPILOT01,710,1264,EDUCATION,EDUCATION LEVEL,12,YEARS,02-JUN-2013,SCREENING 1,02-JUN-2013
CDISCPILOT01,710,1270,EDUCATION,EDUCATION LEVEL,12,YEARS,01-FEB-2014,SCREENING 1,01-FEB-2014
CDISCPILOT01,710,1271,EDUCATION,EDUCATION LEVEL,16,YEARS,04-SEP-2012,SCREENING 1,04-SEP-2012
CDISCPILOT01,710,1278,EDUCATION,EDUCATION LEVEL,20,YEARS,13-DEC-2012,SCREENING 1,13-DEC-2012
CDISCPILOT01,710,1300,EDUCATION,EDUCATION LEVEL,12,YEARS,04-DEC-2012,SCREENING 1,04-DEC-2012
CDISCPILOT01,710,1314,EDUCATION,EDUCATION LEVEL,12,YEARS,21-APR-2013,SCREENING 1,21-APR-2013
CDISCPILOT01,710,1315,EDUCATION,EDUCATION LEVEL,12,YEARS,12-FEB-2013,SCREENING 1,12-FEB-2013
CDISCPILOT01,710,1354,EDUCATION,EDUCATION LEVEL,16,YEARS,29-OCT-2012,SCREENING 1,29-OCT-2012
CDISCPILOT01,710,1358,EDUCATION,EDUCATION LEVEL,6,YEARS,02-SEP-2012,SCREENING 1,02-SEP-2012
CDISCPILOT01,710,1368,EDUCATION,EDUCATION LEVEL,12,YEARS,21-OCT-2013,SCREENING 1,21-OCT-2013
CDISCPILOT01,710,1385,EDUCATION,EDUCATION LEVEL,18,YEARS,21-OCT-2012,SCREENING 1,21-OCT-2012
CDISCPILOT01,710,1408,EDUCATION,EDUCATION LEVEL,12,YEARS,26-DEC-2012,SCREENING 1,26-DEC-2012
CDISCPILOT01,711,1012,EDUCATION,EDUCATION LEVEL,12,YEARS,20-MAR-2013,SCREENING 1,20-MAR-2013
CDISCPILOT01,711,1036,EDUCATION,EDUCATION LEVEL,9,YEARS,20-JUL-2012,SCREENING 1,20-JUL-2012
CDISCPILOT01,711,1143,EDUCATION,EDUCATION LEVEL,12,YEARS,30-MAR-2013,SCREENING 1,30-MAR-2013
CDISCPILOT01,711,1433,EDUCATION,EDUCATION LEVEL,12,YEARS,23-JAN-2013,SCREENING 1,23-JAN-2013
CDISCPILOT01,713,1043,EDUCATION,EDUCATION LEVEL,8,YEARS,17-AUG-2013,SCREENING 1,17-AUG-2013
CDISCPILOT01,713,1073,EDUCATION,EDUCATION LEVEL,6,YEARS,15-MAR-2014,SCREENING 1,15-MAR-2014
CDISCPILOT01,713,1106,EDUCATION,EDUCATION LEVEL,16,YEARS,03-OCT-2012,SCREENING 1,03-OCT-2012
CDISCPILOT01,713,1141,EDUCATION,EDUCATION LEVEL,13,YEARS,23-MAY-2013,SCREENING 1,23-MAY-2013
CDISCPILOT01,713,1179,EDUCATION,EDUCATION LEVEL,12,YEARS,11-JUL-2013,SCREENING 1,11-JUL-2013
CDISCPILOT01,713,1209,EDUCATION,EDUCATION LEVEL,12,YEARS,16-MAY-2013,SCREENING 1,16-MAY-2013
CDISCPILOT01,713,1256,EDUCATION,EDUCATION LEVEL,16,YEARS,10-SEP-2012,SCREENING 1,10-SEP-2012
CDISCPILOT01,713,1269,EDUCATION,EDUCATION LEVEL,16,YEARS,14-JAN-2014,SCREENING 1,14-JAN-2014
CDISCPILOT01,713,1448,EDUCATION,EDUCATION LEVEL,13,YEARS,05-JAN-2014,SCREENING 1,05-JAN-2014
CDISCPILOT01,714,1035,EDUCATION,EDUCATION LEVEL,12,YEARS,03-APR-2014,SCREENING 1,03-APR-2014
CDISCPILOT01,714,1068,EDUCATION,EDUCATION LEVEL,9,YEARS,31-JUL-2013,SCREENING 1,31-JUL-2013
CDISCPILOT01,714,1195,EDUCATION,EDUCATION LEVEL,16,YEARS,16-APR-2013,SCREENING 1,16-APR-2013
CDISCPILOT01,714,1288,EDUCATION,EDUCATION LEVEL,6,YEARS,24-NOV-2013,SCREENING 1,24-NOV-2013
CDISCPILOT01,714,1375,EDUCATION,EDUCATION LEVEL,10,YEARS,23-FEB-2013,SCREENING 1,23-FEB-2013
CDISCPILOT01,714,1425,EDUCATION,EDUCATION LEVEL,16,YEARS,11-AUG-2013,SCREENING 1,11-AUG-2013
CDISCPILOT01,715,1085,EDUCATION,EDUCATION LEVEL,14,YEARS,03-FEB-2013,SCREENING 1,03-FEB-2013
CDISCPILOT01,715,1107,EDUCATION,EDUCATION LEVEL,12,YEARS,12-FEB-2013,SCREENING 1,12-FEB-2013
CDISCPILOT01,715,1155,EDUCATION,EDUCATION LEVEL,12,YEARS,29-NOV-2013,SCREENING 1,29-NOV-2013
CDISCPILOT01,715,1207,EDUCATION,EDUCATION LEVEL,7,YEARS,12-NOV-2012,SCREENING 1,12-NOV-2012
CDISCPILOT01,715,1319,EDUCATION,EDUCATION LEVEL,13,YEARS,03-FEB-2013,SCREENING 1,03-FEB-2013
CDISCPILOT01,715,1321,EDUCATION,EDUCATION LEVEL,12,YEARS,06-FEB-2014,SCREENING 1,06-FEB-2014
CDISCPILOT01,715,1397,EDUCATION,EDUCATION LEVEL,11,YEARS,20-MAR-2013,SCREENING 1,20-MAR-2013
CDISCPILOT01,715,1405,EDUCATION,EDUCATION LEVEL,16,YEARS,27-JUN-2013,SCREENING 1,27-JUN-2013
CDISCPILOT01,716,1024,EDUCATION,EDUCATION LEVEL,12,YEARS,06-JUL-2012,SCREENING 1,06-JUL-2012
CDISCPILOT01,716,1026,EDUCATION,EDUCATION LEVEL,12,YEARS,23-MAR-2014,SCREENING 1,23-MAR-2014
CDISCPILOT01,716,1030,EDUCATION,EDUCATION LEVEL,12,YEARS,25-DEC-2013,SCREENING 1,25-DEC-2013
CDISCPILOT01,716,1044,EDUCATION,EDUCATION LEVEL,12,YEARS,20-APR-2013,SCREENING 1,20-APR-2013
CDISCPILOT01,716,1063,EDUCATION,EDUCATION LEVEL,8,YEARS,06-MAY-2013,SCREENING 1,06-MAY-2013
CDISCPILOT01,716,1071,EDUCATION,EDUCATION LEVEL,12,YEARS,03-JUN-2013,SCREENING 1,03-JUN-2013
CDISCPILOT01,716,1094,EDUCATION,EDUCATION LEVEL,8,YEARS,16-DEC-2012,SCREENING 1,16-DEC-2012
CDISCPILOT01,716,1103,EDUCATION,EDUCATION LEVEL,8,YEARS,18-MAR-2014,SCREENING 1,18-MAR-2014
CDISCPILOT01,716,1108,EDUCATION,EDUCATION LEVEL,12,YEARS,04-FEB-2013,SCREENING 1,04-FEB-2013
CDISCPILOT01,716,1151,EDUCATION,EDUCATION LEVEL,18,YEARS,23-JAN-2013,SCREENING 1,23-JAN-2013
CDISCPILOT01,716,1157,EDUCATION,EDUCATION LEVEL,14,YEARS,23-SEP-2013,SCREENING 1,23-SEP-2013
CDISCPILOT01,716,1160,EDUCATION,EDUCATION LEVEL,12,YEARS,23-MAR-2013,SCREENING 1,23-MAR-2013
CDISCPILOT01,716,1167,EDUCATION,EDUCATION LEVEL,12,YEARS,30-SEP-2012,SCREENING 1,30-SEP-2012
CDISCPILOT01,716,1177,EDUCATION,EDUCATION LEVEL,12,YEARS,29-AUG-2014,SCREENING 1,29-AUG-2014
CDISCPILOT01,716,1189,EDUCATION,EDUCATION LEVEL,9,YEARS,07-OCT-2012,SCREENING 1,07-OCT-2012
CDISCPILOT01,716,1229,EDUCATION,EDUCATION LEVEL,16,YEARS,14-FEB-2013,SCREENING 1,14-FEB-2013
CDISCPILOT01,716,1298,EDUCATION,EDUCATION LEVEL,12,YEARS,04-APR-2013,SCREENING 1,04-APR-2013
CDISCPILOT01,716,1308,EDUCATION,EDUCATION LEVEL,13,YEARS,23-AUG-2013,SCREENING 1,23-AUG-2013
CDISCPILOT01,716,1311,EDUCATION,EDUCATION LEVEL,14,YEARS,08-MAY-2014,SCREENING 1,08-MAY-2014
CDISCPILOT01,716,1364,EDUCATION,EDUCATION LEVEL,12,YEARS,27-JUN-2013,SCREENING 1,27-JUN-2013
CDISCPILOT01,716,1373,EDUCATION,EDUCATION LEVEL,16,YEARS,24-NOV-2012,SCREENING 1,24-NOV-2012
CDISCPILOT01,716,1418,EDUCATION,EDUCATION LEVEL,8,YEARS,27-APR-2013,SCREENING 1,27-APR-2013
CDISCPILOT01,716,1441,EDUCATION,EDUCATION LEVEL,10,YEARS,13-JAN-2014,SCREENING 1,13-JAN-2014
CDISCPILOT01,716,1447,EDUCATION,EDUCATION LEVEL,14,YEARS,10-DEC-2013,SCREENING 1,10-DEC-2013
CDISCPILOT01,717,1004,EDUCATION,EDUCATION LEVEL,15,YEARS,01-JAN-2014,SCREENING 1,01-JAN-2014
CDISCPILOT01,717,1109,EDUCATION,EDUCATION LEVEL,17,YEARS,20-JAN-2014,SCREENING 1,20-JAN-2014
CDISCPILOT01,717,1174,EDUCATION,EDUCATION LEVEL,16,YEARS,16-JAN-2013,SCREENING 1,16-JAN-2013
CDISCPILOT01,717,1201,EDUCATION,EDUCATION LEVEL,12,YEARS,12-DEC-2013,SCREENING 1,12-DEC-2013
CDISCPILOT01,717,1344,EDUCATION,EDUCATION LEVEL,16,YEARS,01-JAN-2014,SCREENING 1,01-JAN-2014
CDISCPILOT01,717,1357,EDUCATION,EDUCATION LEVEL,14,YEARS,21-APR-2013,SCREENING 1,21-APR-2013
CDISCPILOT01,717,1446,EDUCATION,EDUCATION LEVEL,12,YEARS,20-AUG-2013,SCREENING 1,20-AUG-2013
CDISCPILOT01,718,1066,EDUCATION,EDUCATION LEVEL,14,YEARS,28-JUN-2013,SCREENING 1,28-JUN-2013
CDISCPILOT01,718,1079,EDUCATION,EDUCATION LEVEL,16,YEARS,11-SEP-2012,SCREENING 1,11-SEP-2012
CDISCPILOT01,718,1101,EDUCATION,EDUCATION LEVEL,12,YEARS,01-FEB-2013,SCREENING 1,01-FEB-2013
CDISCPILOT01,718,1139,EDUCATION,EDUCATION LEVEL,14,YEARS,03-MAY-2013,SCREENING 1,03-MAY-2013
CDISCPILOT01,718,1150,EDUCATION,EDUCATION LEVEL,16,YEARS,12-JAN-2013,SCREENING 1,12-JAN-2013
CDISCPILOT01,718,1170,EDUCATION,EDUCATION LEVEL,12,YEARS,25-AUG-2013,SCREENING 1,25-AUG-2013
CDISCPILOT01,718,1172,EDUCATION,EDUCATION LEVEL,21,YEARS,15-SEP-2013,SCREENING 1,15-SEP-2013
CDISCPILOT01,718,1250,EDUCATION,EDUCATION LEVEL,21,YEARS,21-AUG-2013,SCREENING 1,21-AUG-2013
CDISCPILOT01,718,1254,EDUCATION,EDUCATION LEVEL,18,YEARS,28-JUN-2013,SCREENING 1,28-JUN-2013
CDISCPILOT01,718,1328,EDUCATION,EDUCATION LEVEL,12,YEARS,28-JAN-2013,SCREENING 1,28-JAN-2013
CDISCPILOT01,718,1355,EDUCATION,EDUCATION LEVEL,15,YEARS,12-FEB-2013,SCREENING 1,12-FEB-2013
CDISCPILOT01,718,1371,EDUCATION,EDUCATION LEVEL,10,YEARS,11-APR-2013,SCREENING 1,11-APR-2013
CDISCPILOT01,718,1427,EDUCATION,EDUCATION LEVEL,16,YEARS,13-DEC-2012,SCREENING 1,13-DEC-2012
